Folder: EchemAnalysis_AMA/C-COM3 (part 9)

File: SWV_10Hz STD3 aptmch 081020_#7.DTA
EXPLAIN
TAG	SQUARE_WAVE
TITLE	LABEL	Square Wave Voltammetry	Test Identifier
DATE	LABEL	8/10/2020	Date
TIME	LABEL	13:17:25	Time
NOTES	NOTES	1	Notes...
	 STD3 aptmch 08102
PSTAT	PSTAT	REF600-24079	Potentiostat
VINIT	QUANT	-3.50000E-001	Initial E (V)
VFINAL	QUANT	-1.50000E-001	Final E (V)
STEPSIZE	QUANT	2.00000E+000	Step Size (mV)
TIMERRES	QUANT	3.33340E-005	&Timer Resolution
FREQUENCY	QUANT	1.00000E+001	Frequency (Hz)
PULSESIZE	QUANT	2.50000E+001	Pulse Size E (mV)
PULSEON	QUANT	1.00000E-001	Pulse &Time (s)
NOISEREJECT	TOGGLE	F	Noise Rejection
AREA	QUANT	2.00000E-002	Sample Area (cm^2)
IMODE	SELECTOR	1	I/E Range Mode
IRANGE	QUANT	1.00000E-003	Max Current (mA)
EQDELAY	IQUANT	10	Equil. Time (s)
IRCOMP	SELECTOR	0	IRComp
PFCOR	QUANT	5.00000E+001	PF Corr. (ohm)
CYCLES	IQUANT	101	C&ycles (#)
ELECTRODETYPE	SELECTOR	0	Electrode Type
STRIPPING	TOGGLE	F	Used for Stripping
POLARITY	TOGGLE	F	Signal Polarity
LINEFREQ	IQUANT	60	Line Frequency (Hz)
INTPERIOD	QUANT	3.3334E-005	Integration Period (s)
SEQUENCER	TOGGLE	TRUE	Run as Sequence
PSTATMODEL	IQUANT	4	Pstat Model
PSTATSECTION	LABEL	REF600-24079	Pstat Section
PSTATSERIALNO	LABEL	24079	Pstat Serial Number
CTRLMODE	IQUANT	1	Control Mode
ELECTROMETER	IQUANT	0	RE=0 or CS=1
IESTAB	IQUANT	2	I/E Stability
CASPEED	IQUANT	6	Control Amp Speed
CONVENTION	IQUANT	1	Current Convention
ICHRANGE	IQUANT	2	Ich Range
ICHRANGEMODE	TOGGLE	F	Ich Auto Range
ICHOFFSETENABLE	TOGGLE	F	Ich Offset Enable
ICHOFFSET	QUANT	0	Ich Offset (V)
ICHFILTER	IQUANT	2	Ich Filter
VCHRANGE	IQUANT	2	Vch Range
VCHRANGEMODE	TOGGLE	F	Vch Auto Range
VCHOFFSETENABLE	TOGGLE	F	Vch Offset Enable
VCHOFFSET	QUANT	0	Vch Offset (V)
VCHFILTER	IQUANT	2	Vch Filter
ACHRANGE	IQUANT	2	Ach Range
ACHOFFSETENABLE	TOGGLE	F	Ach Offset Enable
ACHOFFSET	QUANT	0	Ach Offset (V)
ACHFILTER	IQUANT	1	Ach Filter
IERANGELOWERLIMIT	IQUANT	1	I/E Range Lower Limit
IERANGEMODE	TOGGLE	F	I/E AutoRange
IERANGE	IQUANT	6	I/E Range
POSFEEDENABLE	TOGGLE	F	Positive Feedback IR Comp
POSFEEDRESISTANCE	QUANT	0	Positive Feedback Resistance (ohm)
ACHSELECT	IQUANT	0	Ach Select
SENSECABLEID	IQUANT	13	Sense Cable ID
PWRCABLEID	IQUANT	13	Power Cable ID
DCCALDATE	LABEL	6/30/2020	DC Calibration Date
ACCALDATE	LABEL	6/30/2020	AC Calibration Date
THERMOSELECT	IQUANT	1	Thermo Select
FRAMEWORKVERSION	LABEL	7.8.2	Framework Version
INSTRUMENTVERSION	LABEL	4.40	Instrument Version
CURVE	TABLE	101
	Pt	T	Vfwd	Vrev	Vstep	Ifwd	Irev	Idif	Sig	Ach	IERange	Over	Temp
	#	s	V	V	V	A	A	A	V	V	#	bits	deg C
	0	0.1	-3.24830E-001	-3.74868E-001	-3.49849E-001	-1.08811E-008	-4.19674E-008	3.10863E-008	-3.75000E-001	4.29706E-004	6	..........a	-327.68
	2	0.3	-3.20884E-001	-3.70776E-001	-3.45830E-001	4.17578E-009	-3.53122E-008	3.94880E-008	-3.71000E-001	3.93706E-004	6	..........a	-327.68
	4	0.5	-3.16764E-001	-3.66923E-001	-3.41844E-001	6.06469E-009	-3.33127E-008	3.93773E-008	-3.67000E-001	4.04039E-004	6	..........a	-327.68
	6	0.7	-3.12896E-001	-3.62816E-001	-3.37856E-001	7.33052E-009	-3.19842E-008	3.93147E-008	-3.63000E-001	3.84206E-004	6	..........a	-327.68
	8	0.9	-3.08789E-001	-3.58872E-001	-3.33830E-001	7.99160E-009	-3.09130E-008	3.89046E-008	-3.59000E-001	4.03873E-004	6	..........a	-327.68
	10	1.1	-3.04860E-001	-3.54825E-001	-3.29842E-001	8.67702E-009	-2.99856E-008	3.86626E-008	-3.55000E-001	3.88206E-004	6	..........a	-327.68
	12	1.3	-3.00855E-001	-3.50861E-001	-3.25858E-001	9.39711E-009	-2.90531E-008	3.84502E-008	-3.51000E-001	3.98039E-004	6	..........a	-327.68
	14	1.5	-2.96872E-001	-3.46846E-001	-3.21859E-001	9.83817E-009	-2.83717E-008	3.82099E-008	-3.47000E-001	4.03873E-004	6	..........a	-327.68
	16	1.7	-2.92692E-001	-3.42887E-001	-3.17790E-001	1.05493E-008	-2.77269E-008	3.82762E-008	-3.43000E-001	3.85873E-004	6	..........a	-327.68
	18	1.9	-2.88906E-001	-3.38846E-001	-3.13876E-001	1.12740E-008	-2.70245E-008	3.82985E-008	-3.39000E-001	4.05373E-004	6	..........a	-327.68
	20	2.1	-2.84765E-001	-3.34878E-001	-3.09821E-001	1.17551E-008	-2.63954E-008	3.81505E-008	-3.35000E-001	3.99373E-004	6	..........a	-327.68
	22	2.3	-2.80864E-001	-3.30809E-001	-3.05836E-001	1.25095E-008	-2.62878E-008	3.87973E-008	-3.31000E-001	4.00373E-004	6	..........a	-327.68
	24	2.5	-2.76811E-001	-3.26879E-001	-3.01845E-001	1.31269E-008	-2.58400E-008	3.89670E-008	-3.27000E-001	4.03873E-004	6	..........a	-327.68
	26	2.7	-2.72867E-001	-3.22840E-001	-2.97853E-001	1.35306E-008	-2.54680E-008	3.89986E-008	-3.23000E-001	4.14039E-004	6	..........a	-327.68
	28	2.9	-2.68846E-001	-3.18908E-001	-2.93877E-001	1.43997E-008	-2.52180E-008	3.96177E-008	-3.19000E-001	3.86373E-004	6	..........a	-327.68
	30	3.1	-2.64880E-001	-3.14889E-001	-2.89885E-001	1.50222E-008	-2.49486E-008	3.99708E-008	-3.15000E-001	3.90539E-004	6	..........a	-327.68
	32	3.3	-2.60747E-001	-3.10886E-001	-2.85817E-001	1.54899E-008	-2.49526E-008	4.04425E-008	-3.11000E-001	4.06206E-004	6	..........a	-327.68
	34	3.5	-2.56842E-001	-3.06830E-001	-2.81836E-001	1.61996E-008	-2.47986E-008	4.09982E-008	-3.07000E-001	3.89039E-004	6	..........a	-327.68
	36	3.7	-2.52806E-001	-3.02896E-001	-2.77851E-001	1.64083E-008	-2.47032E-008	4.11116E-008	-3.03000E-001	3.94206E-004	6	..........a	-327.68
	38	3.9	-2.48869E-001	-2.98835E-001	-2.73852E-001	1.68534E-008	-2.45985E-008	4.14519E-008	-2.99000E-001	3.96873E-004	6	..........a	-327.68
	40	4.1	-2.44860E-001	-2.94867E-001	-2.69864E-001	1.70664E-008	-2.44705E-008	4.15369E-008	-2.95000E-001	4.12373E-004	6	..........a	-327.68
	42	4.3	-2.40851E-001	-2.90821E-001	-2.65836E-001	1.73131E-008	-2.44069E-008	4.17200E-008	-2.91000E-001	4.14373E-004	6	..........a	-327.68
	44	4.5	-2.36855E-001	-2.86881E-001	-2.61868E-001	1.74408E-008	-2.40821E-008	4.15229E-008	-2.87000E-001	3.90873E-004	6	..........a	-327.68
	46	4.7	-2.32845E-001	-2.82815E-001	-2.57830E-001	1.72484E-008	-2.38868E-008	4.11352E-008	-2.83000E-001	3.86373E-004	6	..........a	-327.68
	48	4.9	-2.28783E-001	-2.78859E-001	-2.53821E-001	1.72631E-008	-2.35121E-008	4.07752E-008	-2.79000E-001	3.91206E-004	6	..........a	-327.68
	50	5.1	-2.24851E-001	-2.74846E-001	-2.49848E-001	1.72588E-008	-2.32430E-008	4.05018E-008	-2.75000E-001	4.05373E-004	6	..........a	-327.68
	52	5.3	-2.20849E-001	-2.70871E-001	-2.45860E-001	1.71868E-008	-2.26026E-008	3.97894E-008	-2.71000E-001	4.03873E-004	6	..........a	-327.68
	54	5.5	-2.16833E-001	-2.66803E-001	-2.41818E-001	1.71488E-008	-2.22542E-008	3.94030E-008	-2.67000E-001	3.89539E-004	6	..........a	-327.68
	56	5.7	-2.12820E-001	-2.62891E-001	-2.37855E-001	1.70154E-008	-2.15192E-008	3.85346E-008	-2.63000E-001	3.91206E-004	6	..........a	-327.68
	58	5.9	-2.08865E-001	-2.58823E-001	-2.33844E-001	1.73081E-008	-2.08817E-008	3.81899E-008	-2.59000E-001	3.91873E-004	6	..........a	-327.68
	60	6.1	-2.04818E-001	-2.54895E-001	-2.29857E-001	1.69451E-008	-2.04787E-008	3.74238E-008	-2.55000E-001	3.91706E-004	6	..........a	-327.68
	62	6.3	-2.00858E-001	-2.50839E-001	-2.25848E-001	1.69681E-008	-2.00093E-008	3.69774E-008	-2.51000E-001	3.97873E-004	6	..........a	-327.68
	64	6.5	-1.96829E-001	-2.46868E-001	-2.21849E-001	1.69434E-008	-1.94532E-008	3.63966E-008	-2.47000E-001	4.00873E-004	6	..........a	-327.68
	66	6.7	-1.92877E-001	-2.42797E-001	-2.17837E-001	1.69811E-008	-1.90515E-008	3.60326E-008	-2.43000E-001	3.88873E-004	6	..........a	-327.68
	68	6.9	-1.88744E-001	-2.38902E-001	-2.13823E-001	1.70227E-008	-1.86525E-008	3.56752E-008	-2.39000E-001	3.87539E-004	6	..........a	-327.68
	70	7.1	-1.84872E-001	-2.34823E-001	-2.09847E-001	1.70841E-008	-1.82887E-008	3.53728E-008	-2.35000E-001	3.92706E-004	6	..........a	-327.68
	72	7.3	-1.80784E-001	-2.30869E-001	-2.05827E-001	1.72011E-008	-1.77150E-008	3.49161E-008	-2.31000E-001	4.05706E-004	6	..........a	-327.68
	74	7.5	-1.76815E-001	-2.26820E-001	-2.01817E-001	1.71568E-008	-1.75230E-008	3.46797E-008	-2.27000E-001	3.90373E-004	6	..........a	-327.68
	76	7.7	-1.72839E-001	-2.22861E-001	-1.97850E-001	1.74491E-008	-1.68652E-008	3.43144E-008	-2.23000E-001	4.00539E-004	6	..........a	-327.68
	78	7.9	-1.68860E-001	-2.18849E-001	-1.93854E-001	1.74048E-008	-1.66542E-008	3.40590E-008	-2.19000E-001	4.14706E-004	6	..........a	-327.68
	80	8.1	-1.64725E-001	-2.14890E-001	-1.89808E-001	1.73398E-008	-1.64245E-008	3.37643E-008	-2.15000E-001	4.03706E-004	6	..........a	-327.68
	82	8.3	-1.60905E-001	-2.10862E-001	-1.85883E-001	1.74535E-008	-1.62882E-008	3.37416E-008	-2.11000E-001	4.00206E-004	6	..........a	-327.68
	84	8.5	-1.56808E-001	-2.06885E-001	-1.81847E-001	1.77138E-008	-1.59418E-008	3.36556E-008	-2.07000E-001	3.81873E-004	6	..........a	-327.68
	86	8.7	-1.52869E-001	-2.02830E-001	-1.77850E-001	1.77042E-008	-1.57861E-008	3.34903E-008	-2.03000E-001	3.86706E-004	6	..........a	-327.68
	88	8.9	-1.48845E-001	-1.98865E-001	-1.73855E-001	1.79579E-008	-1.54250E-008	3.33829E-008	-1.99000E-001	3.90873E-004	6	..........a	-327.68
	90	9.1	-1.44868E-001	-1.94839E-001	-1.69854E-001	1.79819E-008	-1.54124E-008	3.33942E-008	-1.95000E-001	3.84706E-004	6	..........a	-327.68
	92	9.3	-1.40859E-001	-1.90903E-001	-1.65881E-001	1.80956E-008	-1.50863E-008	3.31819E-008	-1.91000E-001	4.00039E-004	6	..........a	-327.68
	94	9.5	-1.36877E-001	-1.86828E-001	-1.61853E-001	1.82369E-008	-1.50390E-008	3.32759E-008	-1.87000E-001	3.92706E-004	6	..........a	-327.68
	96	9.7	-1.32786E-001	-1.82870E-001	-1.57828E-001	1.82852E-008	-1.47673E-008	3.30525E-008	-1.83000E-001	3.90539E-004	6	..........a	-327.68
	98	9.9	-1.28858E-001	-1.78812E-001	-1.53835E-001	1.83869E-008	-1.44993E-008	3.28862E-008	-1.79000E-001	4.05206E-004	6	..........a	-327.68
	100	10.1	-1.24814E-001	-1.74879E-001	-1.49846E-001	1.87420E-008	-1.44793E-008	3.32212E-008	-1.75000E-001	4.05873E-004	6	..........a	-327.68

File: SWV_10Hz STD3 aptmch 081020_#8.DTA
EXPLAIN
TAG	SQUARE_WAVE
TITLE	LABEL	Square Wave Voltammetry	Test Identifier
DATE	LABEL	8/10/2020	Date
TIME	LABEL	13:17:46	Time
NOTES	NOTES	1	Notes...
	 STD3 aptmch 08102
PSTAT	PSTAT	REF600-24079	Potentiostat
VINIT	QUANT	-3.50000E-001	Initial E (V)
VFINAL	QUANT	-1.50000E-001	Final E (V)
STEPSIZE	QUANT	2.00000E+000	Step Size (mV)
TIMERRES	QUANT	3.33340E-005	&Timer Resolution
FREQUENCY	QUANT	1.00000E+001	Frequency (Hz)
PULSESIZE	QUANT	2.50000E+001	Pulse Size E (mV)
PULSEON	QUANT	1.00000E-001	Pulse &Time (s)
NOISEREJECT	TOGGLE	F	Noise Rejection
AREA	QUANT	2.00000E-002	Sample Area (cm^2)
IMODE	SELECTOR	1	I/E Range Mode
IRANGE	QUANT	1.00000E-003	Max Current (mA)
EQDELAY	IQUANT	10	Equil. Time (s)
IRCOMP	SELECTOR	0	IRComp
PFCOR	QUANT	5.00000E+001	PF Corr. (ohm)
CYCLES	IQUANT	101	C&ycles (#)
ELECTRODETYPE	SELECTOR	0	Electrode Type
STRIPPING	TOGGLE	F	Used for Stripping
POLARITY	TOGGLE	F	Signal Polarity
LINEFREQ	IQUANT	60	Line Frequency (Hz)
INTPERIOD	QUANT	3.3334E-005	Integration Period (s)
SEQUENCER	TOGGLE	TRUE	Run as Sequence
PSTATMODEL	IQUANT	4	Pstat Model
PSTATSECTION	LABEL	REF600-24079	Pstat Section
PSTATSERIALNO	LABEL	24079	Pstat Serial Number
CTRLMODE	IQUANT	1	Control Mode
ELECTROMETER	IQUANT	0	RE=0 or CS=1
IESTAB	IQUANT	2	I/E Stability
CASPEED	IQUANT	6	Control Amp Speed
CONVENTION	IQUANT	1	Current Convention
ICHRANGE	IQUANT	2	Ich Range
ICHRANGEMODE	TOGGLE	F	Ich Auto Range
ICHOFFSETENABLE	TOGGLE	F	Ich Offset Enable
ICHOFFSET	QUANT	0	Ich Offset (V)
ICHFILTER	IQUANT	2	Ich Filter
VCHRANGE	IQUANT	2	Vch Range
VCHRANGEMODE	TOGGLE	F	Vch Auto Range
VCHOFFSETENABLE	TOGGLE	F	Vch Offset Enable
VCHOFFSET	QUANT	0	Vch Offset (V)
VCHFILTER	IQUANT	2	Vch Filter
ACHRANGE	IQUANT	2	Ach Range
ACHOFFSETENABLE	TOGGLE	F	Ach Offset Enable
ACHOFFSET	QUANT	0	Ach Offset (V)
ACHFILTER	IQUANT	1	Ach Filter
IERANGELOWERLIMIT	IQUANT	1	I/E Range Lower Limit
IERANGEMODE	TOGGLE	F	I/E AutoRange
IERANGE	IQUANT	6	I/E Range
POSFEEDENABLE	TOGGLE	F	Positive Feedback IR Comp
POSFEEDRESISTANCE	QUANT	0	Positive Feedback Resistance (ohm)
ACHSELECT	IQUANT	0	Ach Select
SENSECABLEID	IQUANT	13	Sense Cable ID
PWRCABLEID	IQUANT	13	Power Cable ID
DCCALDATE	LABEL	6/30/2020	DC Calibration Date
ACCALDATE	LABEL	6/30/2020	AC Calibration Date
THERMOSELECT	IQUANT	1	Thermo Select
FRAMEWORKVERSION	LABEL	7.8.2	Framework Version
INSTRUMENTVERSION	LABEL	4.40	Instrument Version
CURVE	TABLE	101
	Pt	T	Vfwd	Vrev	Vstep	Ifwd	Irev	Idif	Sig	Ach	IERange	Over	Temp
	#	s	V	V	V	A	A	A	V	V	#	bits	deg C
	0	0.1	-3.24826E-001	-3.74871E-001	-3.49849E-001	-1.14782E-008	-4.23745E-008	3.08963E-008	-3.75000E-001	4.20039E-004	6	..........a	-327.68
	2	0.3	-3.20877E-001	-3.70766E-001	-3.45821E-001	3.49136E-009	-3.59040E-008	3.93953E-008	-3.71000E-001	3.96206E-004	6	..........a	-327.68
	4	0.5	-3.16783E-001	-3.66916E-001	-3.41850E-001	5.55229E-009	-3.39684E-008	3.95207E-008	-3.67000E-001	3.95206E-004	6	..........a	-327.68
	6	0.7	-3.12908E-001	-3.62819E-001	-3.37864E-001	6.40373E-009	-3.23459E-008	3.87496E-008	-3.63000E-001	3.90706E-004	6	..........a	-327.68
	8	0.9	-3.08805E-001	-3.58883E-001	-3.33844E-001	7.36819E-009	-3.12347E-008	3.86029E-008	-3.59000E-001	4.03206E-004	6	..........a	-327.68
	10	1.1	-3.04878E-001	-3.54819E-001	-3.29848E-001	8.19996E-009	-3.03283E-008	3.85282E-008	-3.55000E-001	3.99206E-004	6	..........a	-327.68
	12	1.3	-3.00864E-001	-3.50875E-001	-3.25870E-001	8.71903E-009	-2.95415E-008	3.82605E-008	-3.51000E-001	3.92373E-004	6	..........a	-327.68
	14	1.5	-2.96884E-001	-3.46857E-001	-3.21870E-001	9.19242E-009	-2.89164E-008	3.81089E-008	-3.47000E-001	3.88873E-004	6	..........a	-327.68
	16	1.7	-2.92702E-001	-3.42897E-001	-3.17799E-001	9.87751E-009	-2.82693E-008	3.81469E-008	-3.43000E-001	4.00539E-004	6	..........a	-327.68
	18	1.9	-2.88905E-001	-3.38848E-001	-3.13877E-001	1.04619E-008	-2.76633E-008	3.81252E-008	-3.39000E-001	3.88539E-004	6	..........a	-327.68
	20	2.1	-2.84786E-001	-3.34887E-001	-3.09837E-001	1.13367E-008	-2.70255E-008	3.83622E-008	-3.35000E-001	3.94039E-004	6	..........a	-327.68
	22	2.3	-2.80885E-001	-3.30807E-001	-3.05846E-001	1.18754E-008	-2.64848E-008	3.83602E-008	-3.31000E-001	3.95873E-004	6	..........a	-327.68
	24	2.5	-2.76836E-001	-3.26874E-001	-3.01855E-001	1.23762E-008	-2.61977E-008	3.85739E-008	-3.27000E-001	4.09039E-004	6	..........a	-327.68
	26	2.7	-2.72877E-001	-3.22842E-001	-2.97860E-001	1.31356E-008	-2.58870E-008	3.90226E-008	-3.23000E-001	4.05706E-004	6	..........a	-327.68
	28	2.9	-2.68865E-001	-3.18920E-001	-2.93892E-001	1.36467E-008	-2.56587E-008	3.93053E-008	-3.19000E-001	4.10706E-004	6	..........a	-327.68
	30	3.1	-2.64907E-001	-3.14891E-001	-2.89899E-001	1.42437E-008	-2.54036E-008	3.96474E-008	-3.15000E-001	4.24373E-004	6	..........a	-327.68
	32	3.3	-2.60743E-001	-3.10880E-001	-2.85811E-001	1.49932E-008	-2.52876E-008	4.02808E-008	-3.11000E-001	4.03539E-004	6	..........a	-327.68
	34	3.5	-2.56846E-001	-3.06830E-001	-2.81838E-001	1.55216E-008	-2.52546E-008	4.07762E-008	-3.07000E-001	3.84039E-004	6	..........a	-327.68
	36	3.7	-2.52811E-001	-3.02885E-001	-2.77848E-001	1.59386E-008	-2.49926E-008	4.09312E-008	-3.03000E-001	3.86873E-004	6	..........a	-327.68
	38	3.9	-2.48879E-001	-2.98854E-001	-2.73866E-001	1.62360E-008	-2.49429E-008	4.11789E-008	-2.99000E-001	4.02539E-004	6	..........a	-327.68
	40	4.1	-2.44862E-001	-2.94873E-001	-2.69867E-001	1.63480E-008	-2.50063E-008	4.13543E-008	-2.95000E-001	4.01039E-004	6	..........a	-327.68
	42	4.3	-2.40857E-001	-2.90817E-001	-2.65837E-001	1.65967E-008	-2.48382E-008	4.14349E-008	-2.91000E-001	3.96373E-004	6	..........a	-327.68
	44	4.5	-2.36805E-001	-2.86889E-001	-2.61847E-001	1.67367E-008	-2.44479E-008	4.11846E-008	-2.87000E-001	3.95373E-004	6	..........a	-327.68
	46	4.7	-2.32842E-001	-2.82817E-001	-2.57830E-001	1.68694E-008	-2.43482E-008	4.12176E-008	-2.83000E-001	4.02206E-004	6	..........a	-327.68
	48	4.9	-2.28777E-001	-2.78874E-001	-2.53826E-001	1.67614E-008	-2.40048E-008	4.07662E-008	-2.79000E-001	4.01373E-004	6	..........a	-327.68
	50	5.1	-2.24840E-001	-2.74839E-001	-2.49839E-001	1.68424E-008	-2.37661E-008	4.06085E-008	-2.75000E-001	4.02873E-004	6	..........a	-327.68
	52	5.3	-2.20852E-001	-2.70872E-001	-2.45862E-001	1.66187E-008	-2.30437E-008	3.96624E-008	-2.71000E-001	3.86206E-004	6	..........a	-327.68
	54	5.5	-2.16846E-001	-2.66807E-001	-2.41827E-001	1.67701E-008	-2.24679E-008	3.92380E-008	-2.67000E-001	4.07039E-004	6	..........a	-327.68
	56	5.7	-2.12818E-001	-2.62894E-001	-2.37856E-001	1.67110E-008	-2.19582E-008	3.86692E-008	-2.63000E-001	3.79873E-004	6	..........a	-327.68
	58	5.9	-2.08862E-001	-2.58824E-001	-2.33843E-001	1.66604E-008	-2.15848E-008	3.82452E-008	-2.59000E-001	4.08039E-004	6	..........a	-327.68
	60	6.1	-2.04779E-001	-2.54897E-001	-2.29838E-001	1.65997E-008	-2.10391E-008	3.76388E-008	-2.55000E-001	3.96039E-004	6	..........a	-327.68
	62	6.3	-2.00847E-001	-2.50832E-001	-2.25839E-001	1.64790E-008	-2.04730E-008	3.69520E-008	-2.51000E-001	4.10373E-004	6	..........a	-327.68
	64	6.5	-1.96838E-001	-2.46858E-001	-2.21848E-001	1.65807E-008	-1.99490E-008	3.65296E-008	-2.47000E-001	4.03706E-004	6	..........a	-327.68
	66	6.7	-1.92859E-001	-2.42794E-001	-2.17826E-001	1.67317E-008	-1.94036E-008	3.61353E-008	-2.43000E-001	4.03206E-004	6	..........a	-327.68
	68	6.9	-1.88739E-001	-2.38894E-001	-2.13817E-001	1.66124E-008	-1.91712E-008	3.57836E-008	-2.39000E-001	4.04873E-004	6	..........a	-327.68
	70	7.1	-1.84871E-001	-2.34811E-001	-2.09841E-001	1.68347E-008	-1.84374E-008	3.52722E-008	-2.35000E-001	4.00206E-004	6	..........a	-327.68
	72	7.3	-1.80783E-001	-2.30861E-001	-2.05822E-001	1.70154E-008	-1.81217E-008	3.51371E-008	-2.31000E-001	4.05873E-004	6	..........a	-327.68
	74	7.5	-1.76824E-001	-2.26828E-001	-2.01826E-001	1.67564E-008	-1.76857E-008	3.44420E-008	-2.27000E-001	4.16373E-004	6	..........a	-327.68
	76	7.7	-1.72829E-001	-2.22868E-001	-1.97849E-001	1.68834E-008	-1.74186E-008	3.43020E-008	-2.23000E-001	4.08039E-004	6	..........a	-327.68
	78	7.9	-1.68855E-001	-2.18859E-001	-1.93857E-001	1.68714E-008	-1.71149E-008	3.39863E-008	-2.19000E-001	4.12373E-004	6	..........a	-327.68
	80	8.1	-1.64731E-001	-2.14894E-001	-1.89813E-001	1.72388E-008	-1.68629E-008	3.41017E-008	-2.15000E-001	3.90539E-004	6	..........a	-327.68
	82	8.3	-1.60886E-001	-2.10853E-001	-1.85870E-001	1.72071E-008	-1.66725E-008	3.38796E-008	-2.11000E-001	3.95873E-004	6	..........a	-327.68
	84	8.5	-1.56787E-001	-2.06880E-001	-1.81833E-001	1.73488E-008	-1.62115E-008	3.35603E-008	-2.07000E-001	4.00539E-004	6	..........a	-327.68
	86	8.7	-1.52881E-001	-2.02822E-001	-1.77852E-001	1.74448E-008	-1.60711E-008	3.35159E-008	-2.03000E-001	4.03539E-004	6	..........a	-327.68
	88	8.9	-1.48832E-001	-1.98871E-001	-1.73851E-001	1.76112E-008	-1.58171E-008	3.34283E-008	-1.99000E-001	3.96706E-004	6	..........a	-327.68
	90	9.1	-1.44863E-001	-1.94846E-001	-1.69855E-001	1.77008E-008	-1.56347E-008	3.33356E-008	-1.95000E-001	4.07373E-004	6	..........a	-327.68
	92	9.3	-1.40858E-001	-1.90905E-001	-1.65882E-001	1.78672E-008	-1.52154E-008	3.30825E-008	-1.91000E-001	4.13373E-004	6	..........a	-327.68
	94	9.5	-1.36886E-001	-1.86845E-001	-1.61865E-001	1.81459E-008	-1.54414E-008	3.35873E-008	-1.87000E-001	4.15206E-004	6	..........a	-327.68
	96	9.7	-1.32793E-001	-1.82871E-001	-1.57832E-001	1.81459E-008	-1.50367E-008	3.31826E-008	-1.83000E-001	4.09706E-004	6	..........a	-327.68
	98	9.9	-1.28855E-001	-1.78814E-001	-1.53835E-001	1.82556E-008	-1.50097E-008	3.32652E-008	-1.79000E-001	4.03039E-004	6	..........a	-327.68
	100	10.1	-1.24808E-001	-1.74873E-001	-1.49840E-001	1.83519E-008	-1.49366E-008	3.32886E-008	-1.75000E-001	4.05873E-004	6	..........a	-327.68