Folder: EchemAnalysis_AMA/C-COM1

Note: README.md
# EchemAnalysis_AMA

This repository contains the scripts for automated baseline analysis and visualization of electrochemical data. Baseline and peak analysis of voltammograms is accomplished by a novel area-maximizing algortihm (AMA) that captures peaks even in non-ideal, noisy, and sloped signals.

This open-source program was created to expedite electrochemical data analysis and support the advancement of electrochemical biosensors.

For more detailed instructions for use, refer to: https://docs.google.com/document/d/1B-2fkvCbE3QyiXFA00YbSR5AxEci5_CkFwBRkM6wl3s/edit?usp=sharing

# Script Directory

calcPeaks - Calculates peak heights/areas using AMA, given input data of file type (.DTA or .TXT) and saves results to Excel file(s) for further analysis and plotting.

calcExcelPeaks - Calculates peak heights/areas using AMA, given input data of file type (Excel) and saves results to an Excel file for further analysis and plotting.

plotConcentration - Plots concentration curves of peak heights, peak areas, and normalized signal change given Excel file(s) from calcPeaks or calcExcelPeaks.

plotFrequency - Plots frequency maps of peak heights and normalized signal change given an Excel file from calcPeaks or calcExcelPeaks.

concentrationCurves - Contains functions for file extraction, peak analysis, normalization, and plotting for concentration curves. Called upon by all other scripts.

frequencyMaps - Contains functions for file extraction, peak analysis, normalization, and plotting for frequency maps. Called upon by all other scripts.

File: SWV_10Hz STD1 10  fgml 081020_#5.DTA
EXPLAIN
TAG	SQUARE_WAVE
TITLE	LABEL	Square Wave Voltammetry	Test Identifier
DATE	LABEL	8/10/2020	Date
TIME	LABEL	17:30:48	Time
NOTES	NOTES	1	Notes...
	 STD1, 10  fg/mL 08102
PSTAT	PSTAT	REF600-24079	Potentiostat
VINIT	QUANT	-3.50000E-001	Initial E (V)
VFINAL	QUANT	-1.50000E-001	Final E (V)
STEPSIZE	QUANT	2.00000E+000	Step Size (mV)
TIMERRES	QUANT	3.33340E-005	&Timer Resolution
FREQUENCY	QUANT	1.00000E+001	Frequency (Hz)
PULSESIZE	QUANT	2.50000E+001	Pulse Size E (mV)
PULSEON	QUANT	1.00000E-001	Pulse &Time (s)
NOISEREJECT	TOGGLE	F	Noise Rejection
AREA	QUANT	2.00000E-002	Sample Area (cm^2)
IMODE	SELECTOR	1	I/E Range Mode
IRANGE	QUANT	1.00000E-003	Max Current (mA)
EQDELAY	IQUANT	10	Equil. Time (s)
IRCOMP	SELECTOR	0	IRComp
PFCOR	QUANT	5.00000E+001	PF Corr. (ohm)
CYCLES	IQUANT	101	C&ycles (#)
ELECTRODETYPE	SELECTOR	0	Electrode Type
STRIPPING	TOGGLE	F	Used for Stripping
POLARITY	TOGGLE	F	Signal Polarity
LINEFREQ	IQUANT	60	Line Frequency (Hz)
INTPERIOD	QUANT	3.3334E-005	Integration Period (s)
SEQUENCER	TOGGLE	TRUE	Run as Sequence
PSTATMODEL	IQUANT	4	Pstat Model
PSTATSECTION	LABEL	REF600-24079	Pstat Section
PSTATSERIALNO	LABEL	24079	Pstat Serial Number
CTRLMODE	IQUANT	1	Control Mode
ELECTROMETER	IQUANT	0	RE=0 or CS=1
IESTAB	IQUANT	2	I/E Stability
CASPEED	IQUANT	6	Control Amp Speed
CONVENTION	IQUANT	1	Current Convention
ICHRANGE	IQUANT	2	Ich Range
ICHRANGEMODE	TOGGLE	F	Ich Auto Range
ICHOFFSETENABLE	TOGGLE	F	Ich Offset Enable
ICHOFFSET	QUANT	0	Ich Offset (V)
ICHFILTER	IQUANT	2	Ich Filter
VCHRANGE	IQUANT	2	Vch Range
VCHRANGEMODE	TOGGLE	F	Vch Auto Range
VCHOFFSETENABLE	TOGGLE	F	Vch Offset Enable
VCHOFFSET	QUANT	0	Vch Offset (V)
VCHFILTER	IQUANT	2	Vch Filter
ACHRANGE	IQUANT	2	Ach Range
ACHOFFSETENABLE	TOGGLE	F	Ach Offset Enable
ACHOFFSET	QUANT	0	Ach Offset (V)
ACHFILTER	IQUANT	1	Ach Filter
IERANGELOWERLIMIT	IQUANT	1	I/E Range Lower Limit
IERANGEMODE	TOGGLE	F	I/E AutoRange
IERANGE	IQUANT	6	I/E Range
POSFEEDENABLE	TOGGLE	F	Positive Feedback IR Comp
POSFEEDRESISTANCE	QUANT	0	Positive Feedback Resistance (ohm)
ACHSELECT	IQUANT	0	Ach Select
SENSECABLEID	IQUANT	13	Sense Cable ID
PWRCABLEID	IQUANT	13	Power Cable ID
DCCALDATE	LABEL	6/30/2020	DC Calibration Date
ACCALDATE	LABEL	6/30/2020	AC Calibration Date
THERMOSELECT	IQUANT	1	Thermo Select
FRAMEWORKVERSION	LABEL	7.8.2	Framework Version
INSTRUMENTVERSION	LABEL	4.40	Instrument Version
CURVE	TABLE	101
	Pt	T	Vfwd	Vrev	Vstep	Ifwd	Irev	Idif	Sig	Ach	IERange	Over	Temp
	#	s	V	V	V	A	A	A	V	V	#	bits	deg C
	0	0.1	-3.24989E-001	-3.74951E-001	-3.49970E-001	-1.25553E-007	-2.38489E-007	1.12936E-007	-3.75000E-001	4.01873E-004	6	..........a	-327.68
	2	0.3	-3.20944E-001	-3.70861E-001	-3.45902E-001	-1.07273E-007	-2.24205E-007	1.16932E-007	-3.71000E-001	4.08706E-004	6	..........a	-327.68
	4	0.5	-3.17012E-001	-3.66876E-001	-3.41944E-001	-1.00837E-007	-2.14575E-007	1.13738E-007	-3.67000E-001	4.14039E-004	6	..........a	-327.68
	6	0.7	-3.13025E-001	-3.62857E-001	-3.37941E-001	-9.53779E-008	-2.05572E-007	1.10194E-007	-3.63000E-001	3.96039E-004	6	..........a	-327.68
	8	0.9	-3.08977E-001	-3.58909E-001	-3.33943E-001	-9.02552E-008	-1.97445E-007	1.07189E-007	-3.59000E-001	3.93539E-004	6	..........a	-327.68
	10	1.1	-3.05021E-001	-3.54908E-001	-3.29965E-001	-8.52133E-008	-1.89587E-007	1.04373E-007	-3.55000E-001	3.87039E-004	6	..........a	-327.68
	12	1.3	-3.00993E-001	-3.50920E-001	-3.25956E-001	-8.02963E-008	-1.81855E-007	1.01558E-007	-3.51000E-001	3.90373E-004	6	..........a	-327.68
	14	1.5	-2.96964E-001	-3.46933E-001	-3.21948E-001	-7.58037E-008	-1.74393E-007	9.85892E-008	-3.47000E-001	4.09706E-004	6	..........a	-327.68
	16	1.7	-2.92989E-001	-3.42862E-001	-3.17925E-001	-7.10898E-008	-1.67304E-007	9.62142E-008	-3.43000E-001	4.12539E-004	6	..........a	-327.68
	18	1.9	-2.88996E-001	-3.38873E-001	-3.13935E-001	-6.68086E-008	-1.60640E-007	9.38316E-008	-3.39000E-001	4.17039E-004	6	..........a	-327.68
	20	2.1	-2.84967E-001	-3.34884E-001	-3.09926E-001	-6.24967E-008	-1.53962E-007	9.14650E-008	-3.35000E-001	4.16206E-004	6	..........a	-327.68
	22	2.3	-2.81035E-001	-3.30879E-001	-3.05957E-001	-5.84849E-008	-1.48213E-007	8.97284E-008	-3.31000E-001	4.07873E-004	6	..........a	-327.68
	24	2.5	-2.76974E-001	-3.26924E-001	-3.01949E-001	-5.45417E-008	-1.42166E-007	8.76245E-008	-3.27000E-001	4.03039E-004	6	..........a	-327.68
	26	2.7	-2.72960E-001	-3.22926E-001	-2.97943E-001	-5.05315E-008	-1.36370E-007	8.58389E-008	-3.23000E-001	3.93539E-004	6	..........a	-327.68
	28	2.9	-2.68953E-001	-3.18848E-001	-2.93900E-001	-4.70047E-008	-1.31011E-007	8.40060E-008	-3.19000E-001	3.94539E-004	6	..........a	-327.68
	30	3.1	-2.65070E-001	-3.14936E-001	-2.90003E-001	-4.35146E-008	-1.25761E-007	8.22465E-008	-3.15000E-001	4.08539E-004	6	..........a	-327.68
	32	3.3	-2.60984E-001	-3.10879E-001	-2.85931E-001	-3.99482E-008	-1.21016E-007	8.10683E-008	-3.11000E-001	4.07873E-004	6	..........a	-327.68
	34	3.5	-2.57007E-001	-3.06891E-001	-2.81949E-001	-3.65784E-008	-1.16297E-007	7.97181E-008	-3.07000E-001	3.99373E-004	6	..........a	-327.68
	36	3.7	-2.53016E-001	-3.02929E-001	-2.77973E-001	-3.34710E-008	-1.11506E-007	7.80346E-008	-3.03000E-001	3.99706E-004	6	..........a	-327.68
	38	3.9	-2.48985E-001	-2.98932E-001	-2.73959E-001	-3.02956E-008	-1.07376E-007	7.70805E-008	-2.99000E-001	3.98539E-004	6	..........a	-327.68
	40	4.1	-2.44953E-001	-2.94930E-001	-2.69941E-001	-2.76036E-008	-1.03026E-007	7.54226E-008	-2.95000E-001	4.02539E-004	6	..........a	-327.68
	42	4.3	-2.41078E-001	-2.90857E-001	-2.65967E-001	-2.47209E-008	-9.92697E-008	7.45488E-008	-2.91000E-001	4.04373E-004	6	..........a	-327.68
	44	4.5	-2.36973E-001	-2.86898E-001	-2.61936E-001	-2.21302E-008	-9.53939E-008	7.32637E-008	-2.87000E-001	4.11539E-004	6	..........a	-327.68
	46	4.7	-2.33015E-001	-2.82874E-001	-2.57944E-001	-2.00553E-008	-9.17417E-008	7.16864E-008	-2.83000E-001	4.01873E-004	6	..........a	-327.68
	48	4.9	-2.28974E-001	-2.78933E-001	-2.53954E-001	-1.72839E-008	-8.80893E-008	7.08053E-008	-2.79000E-001	4.01039E-004	6	..........a	-327.68
	50	5.1	-2.24985E-001	-2.74911E-001	-2.49948E-001	-1.53537E-008	-8.47642E-008	6.94105E-008	-2.75000E-001	3.96373E-004	6	..........a	-327.68
	52	5.3	-2.20958E-001	-2.70924E-001	-2.45941E-001	-1.34101E-008	-8.15368E-008	6.81267E-008	-2.71000E-001	4.11206E-004	6	..........a	-327.68
	54	5.5	-2.17093E-001	-2.66818E-001	-2.41955E-001	-1.13532E-008	-7.81867E-008	6.68335E-008	-2.67000E-001	4.01873E-004	6	..........a	-327.68
	56	5.7	-2.12950E-001	-2.62887E-001	-2.37919E-001	-9.50229E-009	-7.51136E-008	6.56113E-008	-2.63000E-001	4.19706E-004	6	..........a	-327.68
	58	5.9	-2.09014E-001	-2.58876E-001	-2.33945E-001	-7.76707E-009	-7.21333E-008	6.43662E-008	-2.59000E-001	4.15039E-004	6	..........a	-327.68
	60	6.1	-2.04994E-001	-2.54903E-001	-2.29948E-001	-5.92284E-009	-6.92382E-008	6.33154E-008	-2.55000E-001	4.21373E-004	6	..........a	-327.68
	62	6.3	-2.01016E-001	-2.50904E-001	-2.25960E-001	-4.10561E-009	-6.63585E-008	6.22529E-008	-2.51000E-001	4.12373E-004	6	..........a	-327.68
	64	6.5	-1.96993E-001	-2.46891E-001	-2.21942E-001	-2.76443E-009	-6.38235E-008	6.10591E-008	-2.47000E-001	4.12206E-004	6	..........a	-327.68
	66	6.7	-1.92978E-001	-2.42844E-001	-2.17911E-001	-1.16790E-009	-6.09902E-008	5.98223E-008	-2.43000E-001	4.10706E-004	6	..........a	-327.68
	68	6.9	-1.88992E-001	-2.38863E-001	-2.13927E-001	4.04301E-010	-5.85562E-008	5.89605E-008	-2.39000E-001	4.06873E-004	6	..........a	-327.68
	70	7.1	-1.85019E-001	-2.34860E-001	-2.09940E-001	1.85815E-009	-5.61672E-008	5.80254E-008	-2.35000E-001	4.06873E-004	6	..........a	-327.68
	72	7.3	-1.81010E-001	-2.30877E-001	-2.05944E-001	3.01130E-009	-5.40323E-008	5.70436E-008	-2.31000E-001	4.11039E-004	6	..........a	-327.68
	74	7.5	-1.77042E-001	-2.26911E-001	-2.01976E-001	4.20745E-009	-5.16680E-008	5.58754E-008	-2.27000E-001	4.07706E-004	6	..........a	-327.68
	76	7.7	-1.73020E-001	-2.22917E-001	-1.97969E-001	5.44694E-009	-4.99128E-008	5.53597E-008	-2.23000E-001	4.02373E-004	6	..........a	-327.68
	78	7.9	-1.68999E-001	-2.18945E-001	-1.93972E-001	6.51575E-009	-4.78018E-008	5.43176E-008	-2.19000E-001	4.04873E-004	6	..........a	-327.68
	80	8.1	-1.64862E-001	-2.14858E-001	-1.89860E-001	7.84458E-009	-4.60746E-008	5.39192E-008	-2.15000E-001	4.03873E-004	6	..........a	-327.68
	82	8.3	-1.60995E-001	-2.10908E-001	-1.85952E-001	8.77770E-009	-4.42204E-008	5.29981E-008	-2.11000E-001	4.01373E-004	6	..........a	-327.68
	84	8.5	-1.56977E-001	-2.06899E-001	-1.81938E-001	1.03239E-008	-4.25108E-008	5.28347E-008	-2.07000E-001	3.94539E-004	6	..........a	-327.68
	86	8.7	-1.53047E-001	-2.02886E-001	-1.77966E-001	1.11113E-008	-4.09810E-008	5.20923E-008	-2.03000E-001	4.01873E-004	6	..........a	-327.68
	88	8.9	-1.49016E-001	-1.98948E-001	-1.73982E-001	1.20418E-008	-3.93941E-008	5.14359E-008	-1.99000E-001	3.93373E-004	6	..........a	-327.68
	90	9.1	-1.44990E-001	-1.94924E-001	-1.69957E-001	1.30279E-008	-3.80156E-008	5.10435E-008	-1.95000E-001	3.89873E-004	6	..........a	-327.68
	92	9.3	-1.40990E-001	-1.90895E-001	-1.65943E-001	1.38123E-008	-3.64761E-008	5.02884E-008	-1.91000E-001	3.90706E-004	6	..........a	-327.68
	94	9.5	-1.37064E-001	-1.86860E-001	-1.61962E-001	1.48395E-008	-3.51789E-008	5.00184E-008	-1.87000E-001	3.88373E-004	6	..........a	-327.68
	96	9.7	-1.32938E-001	-1.82914E-001	-1.57926E-001	1.57953E-008	-3.39274E-008	4.97227E-008	-1.83000E-001	3.89706E-004	6	..........a	-327.68
	98	9.9	-1.29006E-001	-1.78887E-001	-1.53947E-001	1.68694E-008	-3.29393E-008	4.98087E-008	-1.79000E-001	3.97873E-004	6	..........a	-327.68
	100	10.1	-1.24990E-001	-1.74931E-001	-1.49960E-001	1.74958E-008	-3.16281E-008	4.91239E-008	-1.75000E-001	3.94873E-004	6	..........a	-327.68

File: SWV_10Hz STD1 10  fgml 081020_#7.DTA
EXPLAIN
TAG	SQUARE_WAVE
TITLE	LABEL	Square Wave Voltammetry	Test Identifier
DATE	LABEL	8/10/2020	Date
TIME	LABEL	17:31:28	Time
NOTES	NOTES	1	Notes...
	 STD1, 10  fg/mL 08102
PSTAT	PSTAT	REF600-24079	Potentiostat
VINIT	QUANT	-3.50000E-001	Initial E (V)
VFINAL	QUANT	-1.50000E-001	Final E (V)
STEPSIZE	QUANT	2.00000E+000	Step Size (mV)
TIMERRES	QUANT	3.33340E-005	&Timer Resolution
FREQUENCY	QUANT	1.00000E+001	Frequency (Hz)
PULSESIZE	QUANT	2.50000E+001	Pulse Size E (mV)
PULSEON	QUANT	1.00000E-001	Pulse &Time (s)
NOISEREJECT	TOGGLE	F	Noise Rejection
AREA	QUANT	2.00000E-002	Sample Area (cm^2)
IMODE	SELECTOR	1	I/E Range Mode
IRANGE	QUANT	1.00000E-003	Max Current (mA)
EQDELAY	IQUANT	10	Equil. Time (s)
IRCOMP	SELECTOR	0	IRComp
PFCOR	QUANT	5.00000E+001	PF Corr. (ohm)
CYCLES	IQUANT	101	C&ycles (#)
ELECTRODETYPE	SELECTOR	0	Electrode Type
STRIPPING	TOGGLE	F	Used for Stripping
POLARITY	TOGGLE	F	Signal Polarity
LINEFREQ	IQUANT	60	Line Frequency (Hz)
INTPERIOD	QUANT	3.3334E-005	Integration Period (s)
SEQUENCER	TOGGLE	TRUE	Run as Sequence
PSTATMODEL	IQUANT	4	Pstat Model
PSTATSECTION	LABEL	REF600-24079	Pstat Section
PSTATSERIALNO	LABEL	24079	Pstat Serial Number
CTRLMODE	IQUANT	1	Control Mode
ELECTROMETER	IQUANT	0	RE=0 or CS=1
IESTAB	IQUANT	2	I/E Stability
CASPEED	IQUANT	6	Control Amp Speed
CONVENTION	IQUANT	1	Current Convention
ICHRANGE	IQUANT	2	Ich Range
ICHRANGEMODE	TOGGLE	F	Ich Auto Range
ICHOFFSETENABLE	TOGGLE	F	Ich Offset Enable
ICHOFFSET	QUANT	0	Ich Offset (V)
ICHFILTER	IQUANT	2	Ich Filter
VCHRANGE	IQUANT	2	Vch Range
VCHRANGEMODE	TOGGLE	F	Vch Auto Range
VCHOFFSETENABLE	TOGGLE	F	Vch Offset Enable
VCHOFFSET	QUANT	0	Vch Offset (V)
VCHFILTER	IQUANT	2	Vch Filter
ACHRANGE	IQUANT	2	Ach Range
ACHOFFSETENABLE	TOGGLE	F	Ach Offset Enable
ACHOFFSET	QUANT	0	Ach Offset (V)
ACHFILTER	IQUANT	1	Ach Filter
IERANGELOWERLIMIT	IQUANT	1	I/E Range Lower Limit
IERANGEMODE	TOGGLE	F	I/E AutoRange
IERANGE	IQUANT	6	I/E Range
POSFEEDENABLE	TOGGLE	F	Positive Feedback IR Comp
POSFEEDRESISTANCE	QUANT	0	Positive Feedback Resistance (ohm)
ACHSELECT	IQUANT	0	Ach Select
SENSECABLEID	IQUANT	13	Sense Cable ID
PWRCABLEID	IQUANT	13	Power Cable ID
DCCALDATE	LABEL	6/30/2020	DC Calibration Date
ACCALDATE	LABEL	6/30/2020	AC Calibration Date
THERMOSELECT	IQUANT	1	Thermo Select
FRAMEWORKVERSION	LABEL	7.8.2	Framework Version
INSTRUMENTVERSION	LABEL	4.40	Instrument Version
CURVE	TABLE	101
	Pt	T	Vfwd	Vrev	Vstep	Ifwd	Irev	Idif	Sig	Ach	IERange	Over	Temp
	#	s	V	V	V	A	A	A	V	V	#	bits	deg C
	0	0.1	-3.24975E-001	-3.74937E-001	-3.49956E-001	-1.23357E-007	-2.33709E-007	1.10352E-007	-3.75000E-001	4.11539E-004	6	..........a	-327.68
	2	0.3	-3.20939E-001	-3.70823E-001	-3.45881E-001	-1.05153E-007	-2.19920E-007	1.14767E-007	-3.71000E-001	4.14873E-004	6	..........a	-327.68
	4	0.5	-3.17013E-001	-3.66895E-001	-3.41954E-001	-9.89957E-008	-2.10591E-007	1.11596E-007	-3.67000E-001	4.09206E-004	6	..........a	-327.68
	6	0.7	-3.13012E-001	-3.62858E-001	-3.37935E-001	-9.34430E-008	-2.02101E-007	1.08658E-007	-3.63000E-001	4.11706E-004	6	..........a	-327.68
	8	0.9	-3.08967E-001	-3.58925E-001	-3.33946E-001	-8.83893E-008	-1.93860E-007	1.05470E-007	-3.59000E-001	4.00706E-004	6	..........a	-327.68
	10	1.1	-3.05011E-001	-3.54896E-001	-3.29954E-001	-8.34030E-008	-1.86170E-007	1.02767E-007	-3.55000E-001	4.02706E-004	6	..........a	-327.68
	12	1.3	-3.00995E-001	-3.50923E-001	-3.25959E-001	-7.88814E-008	-1.78833E-007	9.99514E-008	-3.51000E-001	4.07873E-004	6	..........a	-327.68
	14	1.5	-2.96963E-001	-3.46925E-001	-3.21944E-001	-7.43375E-008	-1.71557E-007	9.72190E-008	-3.47000E-001	4.21039E-004	6	..........a	-327.68
	16	1.7	-2.92975E-001	-3.42880E-001	-3.17927E-001	-6.99880E-008	-1.64761E-007	9.47734E-008	-3.43000E-001	4.14206E-004	6	..........a	-327.68
	18	1.9	-2.88971E-001	-3.38865E-001	-3.13918E-001	-6.53187E-008	-1.57825E-007	9.25061E-008	-3.39000E-001	4.16373E-004	6	..........a	-327.68
	20	2.1	-2.84976E-001	-3.34898E-001	-3.09937E-001	-6.11455E-008	-1.51802E-007	9.06562E-008	-3.35000E-001	4.12206E-004	6	..........a	-327.68
	22	2.3	-2.81030E-001	-3.30881E-001	-3.05955E-001	-5.72647E-008	-1.45950E-007	8.86853E-008	-3.31000E-001	4.11039E-004	6	..........a	-327.68
	24	2.5	-2.76979E-001	-3.26929E-001	-3.01954E-001	-5.34642E-008	-1.40082E-007	8.66177E-008	-3.27000E-001	4.04206E-004	6	..........a	-327.68
	26	2.7	-2.72947E-001	-3.22915E-001	-2.97931E-001	-4.95624E-008	-1.34376E-007	8.48138E-008	-3.23000E-001	4.00373E-004	6	..........a	-327.68
	28	2.9	-2.68948E-001	-3.18869E-001	-2.93909E-001	-4.60033E-008	-1.29053E-007	8.30496E-008	-3.19000E-001	4.03373E-004	6	..........a	-327.68
	30	3.1	-2.65044E-001	-3.14942E-001	-2.89993E-001	-4.24572E-008	-1.24125E-007	8.16680E-008	-3.15000E-001	4.08706E-004	6	..........a	-327.68
	32	3.3	-2.60972E-001	-3.10893E-001	-2.85933E-001	-3.89960E-008	-1.19341E-007	8.03452E-008	-3.11000E-001	4.05373E-004	6	..........a	-327.68
	34	3.5	-2.56986E-001	-3.06887E-001	-2.81937E-001	-3.57676E-008	-1.14661E-007	7.88937E-008	-3.07000E-001	4.12539E-004	6	..........a	-327.68
	36	3.7	-2.53014E-001	-3.02936E-001	-2.77975E-001	-3.25999E-008	-1.10343E-007	7.77436E-008	-3.03000E-001	4.05039E-004	6	..........a	-327.68
	38	3.9	-2.48985E-001	-2.98910E-001	-2.73948E-001	-2.96665E-008	-1.06090E-007	7.64234E-008	-2.99000E-001	3.98373E-004	6	..........a	-327.68
	40	4.1	-2.44949E-001	-2.94935E-001	-2.69942E-001	-2.68472E-008	-1.02002E-007	7.51549E-008	-2.95000E-001	3.95206E-004	6	..........a	-327.68
	42	4.3	-2.41086E-001	-2.90862E-001	-2.65974E-001	-2.40435E-008	-9.80762E-008	7.40328E-008	-2.91000E-001	3.98873E-004	6	..........a	-327.68
	44	4.5	-2.36985E-001	-2.86913E-001	-2.61949E-001	-2.15405E-008	-9.41241E-008	7.25836E-008	-2.87000E-001	4.18039E-004	6	..........a	-327.68
	46	4.7	-2.33035E-001	-2.82879E-001	-2.57957E-001	-1.91509E-008	-9.08516E-008	7.17008E-008	-2.83000E-001	4.13706E-004	6	..........a	-327.68
	48	4.9	-2.28994E-001	-2.78946E-001	-2.53970E-001	-1.69766E-008	-8.73925E-008	7.04160E-008	-2.79000E-001	4.03039E-004	6	..........a	-327.68
	50	5.1	-2.25006E-001	-2.74923E-001	-2.49965E-001	-1.47423E-008	-8.37657E-008	6.90234E-008	-2.75000E-001	4.06873E-004	6	..........a	-327.68
	52	5.3	-2.20980E-001	-2.70914E-001	-2.45947E-001	-1.27354E-008	-8.06263E-008	6.78910E-008	-2.71000E-001	4.15039E-004	6	..........a	-327.68
	54	5.5	-2.17106E-001	-2.66821E-001	-2.41964E-001	-1.09541E-008	-7.73319E-008	6.63778E-008	-2.67000E-001	4.07206E-004	6	..........a	-327.68
	56	5.7	-2.12960E-001	-2.62879E-001	-2.37919E-001	-8.98356E-009	-7.44049E-008	6.54213E-008	-2.63000E-001	4.15373E-004	6	..........a	-327.68
	58	5.9	-2.08998E-001	-2.58882E-001	-2.33940E-001	-7.11966E-009	-7.12522E-008	6.41325E-008	-2.59000E-001	4.24539E-004	6	..........a	-327.68
	60	6.1	-2.04995E-001	-2.54905E-001	-2.29950E-001	-5.47878E-009	-6.84678E-008	6.29890E-008	-2.55000E-001	4.12039E-004	6	..........a	-327.68
	62	6.3	-2.01004E-001	-2.50909E-001	-2.25956E-001	-3.67122E-009	-6.57488E-008	6.20776E-008	-2.51000E-001	4.16873E-004	6	..........a	-327.68
	64	6.5	-1.96993E-001	-2.46898E-001	-2.21945E-001	-2.18803E-009	-6.30171E-008	6.08291E-008	-2.47000E-001	4.15539E-004	6	..........a	-327.68
	66	6.7	-1.92967E-001	-2.42841E-001	-2.17904E-001	-6.27163E-010	-6.04761E-008	5.98490E-008	-2.43000E-001	4.10373E-004	6	..........a	-327.68
	68	6.9	-1.88988E-001	-2.38863E-001	-2.13925E-001	7.50679E-010	-5.81908E-008	5.89415E-008	-2.39000E-001	4.17873E-004	6	..........a	-327.68
	70	7.1	-1.85014E-001	-2.34860E-001	-2.09937E-001	1.95783E-009	-5.55595E-008	5.75173E-008	-2.35000E-001	4.07539E-004	6	..........a	-327.68
	72	7.3	-1.81005E-001	-2.30892E-001	-2.05948E-001	3.24300E-009	-5.34556E-008	5.66985E-008	-2.31000E-001	4.05706E-004	6	..........a	-327.68
	74	7.5	-1.77019E-001	-2.26900E-001	-2.01959E-001	4.41715E-009	-5.16437E-008	5.60608E-008	-2.27000E-001	4.06373E-004	6	..........a	-327.68
	76	7.7	-1.73008E-001	-2.22914E-001	-1.97961E-001	5.74565E-009	-4.95060E-008	5.52517E-008	-2.23000E-001	4.07373E-004	6	..........a	-327.68
	78	7.9	-1.68975E-001	-2.18926E-001	-1.93950E-001	6.96647E-009	-4.77638E-008	5.47303E-008	-2.19000E-001	3.96039E-004	6	..........a	-327.68
	80	8.1	-1.64880E-001	-2.14869E-001	-1.89875E-001	8.21129E-009	-4.59136E-008	5.41249E-008	-2.15000E-001	3.84873E-004	6	..........a	-327.68
	82	8.3	-1.61001E-001	-2.10887E-001	-1.85944E-001	9.27543E-009	-4.39140E-008	5.31894E-008	-2.11000E-001	3.96373E-004	6	..........a	-327.68
	84	8.5	-1.56950E-001	-2.06892E-001	-1.81921E-001	1.02019E-008	-4.22491E-008	5.24510E-008	-2.07000E-001	3.88873E-004	6	..........a	-327.68
	86	8.7	-1.53037E-001	-2.02892E-001	-1.77964E-001	1.11503E-008	-4.07166E-008	5.18669E-008	-2.03000E-001	3.92539E-004	6	..........a	-327.68
	88	8.9	-1.48988E-001	-1.98949E-001	-1.73969E-001	1.21785E-008	-3.92194E-008	5.13979E-008	-1.99000E-001	3.70539E-004	6	..........a	-327.68
	90	9.1	-1.44979E-001	-1.94928E-001	-1.69954E-001	1.32569E-008	-3.79282E-008	5.11852E-008	-1.95000E-001	3.77373E-004	6	..........a	-327.68
	92	9.3	-1.40975E-001	-1.90944E-001	-1.65960E-001	1.42327E-008	-3.61593E-008	5.03921E-008	-1.91000E-001	3.86373E-004	6	..........a	-327.68
	94	9.5	-1.37059E-001	-1.86861E-001	-1.61960E-001	1.48825E-008	-3.49992E-008	4.98817E-008	-1.87000E-001	3.80373E-004	6	..........a	-327.68
	96	9.7	-1.32961E-001	-1.82917E-001	-1.57939E-001	1.61003E-008	-3.38791E-008	4.99794E-008	-1.83000E-001	3.85039E-004	6	..........a	-327.68
	98	9.9	-1.28994E-001	-1.78881E-001	-1.53937E-001	1.67670E-008	-3.27189E-008	4.94860E-008	-1.79000E-001	3.90706E-004	6	..........a	-327.68
	100	10.1	-1.25012E-001	-1.74947E-001	-1.49979E-001	1.75715E-008	-3.14741E-008	4.90456E-008	-1.75000E-001	3.92206E-004	6	..........a	-327.68