Folder: EchemAnalysis_AMA/C-COM2 (part 10)

File: SWV_10Hz STD2 aptmch 081020_#6.DTA
EXPLAIN
TAG	SQUARE_WAVE
TITLE	LABEL	Square Wave Voltammetry	Test Identifier
DATE	LABEL	8/10/2020	Date
TIME	LABEL	13:01:58	Time
NOTES	NOTES	1	Notes...
	 STD2 aptmch 08102
PSTAT	PSTAT	REF600-24079	Potentiostat
VINIT	QUANT	-3.50000E-001	Initial E (V)
VFINAL	QUANT	-1.50000E-001	Final E (V)
STEPSIZE	QUANT	2.00000E+000	Step Size (mV)
TIMERRES	QUANT	3.33340E-005	&Timer Resolution
FREQUENCY	QUANT	1.00000E+001	Frequency (Hz)
PULSESIZE	QUANT	2.50000E+001	Pulse Size E (mV)
PULSEON	QUANT	1.00000E-001	Pulse &Time (s)
NOISEREJECT	TOGGLE	F	Noise Rejection
AREA	QUANT	2.00000E-002	Sample Area (cm^2)
IMODE	SELECTOR	1	I/E Range Mode
IRANGE	QUANT	1.00000E-003	Max Current (mA)
EQDELAY	IQUANT	10	Equil. Time (s)
IRCOMP	SELECTOR	0	IRComp
PFCOR	QUANT	5.00000E+001	PF Corr. (ohm)
CYCLES	IQUANT	101	C&ycles (#)
ELECTRODETYPE	SELECTOR	0	Electrode Type
STRIPPING	TOGGLE	F	Used for Stripping
POLARITY	TOGGLE	F	Signal Polarity
LINEFREQ	IQUANT	60	Line Frequency (Hz)
INTPERIOD	QUANT	3.3334E-005	Integration Period (s)
SEQUENCER	TOGGLE	TRUE	Run as Sequence
PSTATMODEL	IQUANT	4	Pstat Model
PSTATSECTION	LABEL	REF600-24079	Pstat Section
PSTATSERIALNO	LABEL	24079	Pstat Serial Number
CTRLMODE	IQUANT	1	Control Mode
ELECTROMETER	IQUANT	0	RE=0 or CS=1
IESTAB	IQUANT	2	I/E Stability
CASPEED	IQUANT	6	Control Amp Speed
CONVENTION	IQUANT	1	Current Convention
ICHRANGE	IQUANT	2	Ich Range
ICHRANGEMODE	TOGGLE	F	Ich Auto Range
ICHOFFSETENABLE	TOGGLE	F	Ich Offset Enable
ICHOFFSET	QUANT	0	Ich Offset (V)
ICHFILTER	IQUANT	2	Ich Filter
VCHRANGE	IQUANT	2	Vch Range
VCHRANGEMODE	TOGGLE	F	Vch Auto Range
VCHOFFSETENABLE	TOGGLE	F	Vch Offset Enable
VCHOFFSET	QUANT	0	Vch Offset (V)
VCHFILTER	IQUANT	2	Vch Filter
ACHRANGE	IQUANT	2	Ach Range
ACHOFFSETENABLE	TOGGLE	F	Ach Offset Enable
ACHOFFSET	QUANT	0	Ach Offset (V)
ACHFILTER	IQUANT	1	Ach Filter
IERANGELOWERLIMIT	IQUANT	1	I/E Range Lower Limit
IERANGEMODE	TOGGLE	F	I/E AutoRange
IERANGE	IQUANT	6	I/E Range
POSFEEDENABLE	TOGGLE	F	Positive Feedback IR Comp
POSFEEDRESISTANCE	QUANT	0	Positive Feedback Resistance (ohm)
ACHSELECT	IQUANT	0	Ach Select
SENSECABLEID	IQUANT	13	Sense Cable ID
PWRCABLEID	IQUANT	13	Power Cable ID
DCCALDATE	LABEL	6/30/2020	DC Calibration Date
ACCALDATE	LABEL	6/30/2020	AC Calibration Date
THERMOSELECT	IQUANT	1	Thermo Select
FRAMEWORKVERSION	LABEL	7.8.2	Framework Version
INSTRUMENTVERSION	LABEL	4.40	Instrument Version
CURVE	TABLE	101
	Pt	T	Vfwd	Vrev	Vstep	Ifwd	Irev	Idif	Sig	Ach	IERange	Over	Temp
	#	s	V	V	V	A	A	A	V	V	#	bits	deg C
	0	0.1	-3.24853E-001	-3.74877E-001	-3.49865E-001	-8.27780E-009	-3.82389E-008	2.99611E-008	-3.75000E-001	4.34039E-004	6	..........a	-327.68
	2	0.3	-3.20891E-001	-3.70761E-001	-3.45826E-001	6.26871E-009	-3.13307E-008	3.75994E-008	-3.71000E-001	4.01039E-004	6	..........a	-327.68
	4	0.5	-3.16725E-001	-3.66870E-001	-3.41797E-001	8.15362E-009	-2.93748E-008	3.75284E-008	-3.67000E-001	4.20873E-004	6	..........a	-327.68
	6	0.7	-3.12864E-001	-3.62798E-001	-3.37831E-001	9.25076E-009	-2.82577E-008	3.75084E-008	-3.63000E-001	4.09539E-004	6	..........a	-327.68
	8	0.9	-3.08802E-001	-3.58842E-001	-3.33822E-001	9.86284E-009	-2.72179E-008	3.70807E-008	-3.59000E-001	4.09539E-004	6	..........a	-327.68
	10	1.1	-3.04843E-001	-3.54811E-001	-3.29827E-001	1.07089E-008	-2.63571E-008	3.70661E-008	-3.55000E-001	4.09373E-004	6	..........a	-327.68
	12	1.3	-3.00861E-001	-3.50864E-001	-3.25862E-001	1.13400E-008	-2.57544E-008	3.70944E-008	-3.51000E-001	4.12539E-004	6	..........a	-327.68
	14	1.5	-2.96878E-001	-3.46850E-001	-3.21864E-001	1.17474E-008	-2.51473E-008	3.68947E-008	-3.47000E-001	4.21039E-004	6	..........a	-327.68
	16	1.7	-2.92732E-001	-3.42879E-001	-3.17806E-001	1.27042E-008	-2.45399E-008	3.72441E-008	-3.43000E-001	4.30539E-004	6	..........a	-327.68
	18	1.9	-2.88887E-001	-3.38805E-001	-3.13846E-001	1.33886E-008	-2.40731E-008	3.74618E-008	-3.39000E-001	4.24206E-004	6	..........a	-327.68
	20	2.1	-2.84783E-001	-3.34868E-001	-3.09826E-001	1.40894E-008	-2.37111E-008	3.78005E-008	-3.35000E-001	4.15206E-004	6	..........a	-327.68
	22	2.3	-2.80855E-001	-3.30806E-001	-3.05831E-001	1.46718E-008	-2.33404E-008	3.80122E-008	-3.31000E-001	4.15206E-004	6	..........a	-327.68
	24	2.5	-2.76853E-001	-3.26862E-001	-3.01857E-001	1.53115E-008	-2.31570E-008	3.84686E-008	-3.27000E-001	4.10873E-004	6	..........a	-327.68
	26	2.7	-2.72871E-001	-3.22848E-001	-2.97859E-001	1.60716E-008	-2.29573E-008	3.90290E-008	-3.23000E-001	4.21706E-004	6	..........a	-327.68
	28	2.9	-2.68872E-001	-3.18872E-001	-2.93872E-001	1.66280E-008	-2.29533E-008	3.95814E-008	-3.19000E-001	4.23206E-004	6	..........a	-327.68
	30	3.1	-2.64848E-001	-3.14848E-001	-2.89848E-001	1.72681E-008	-2.29467E-008	4.02148E-008	-3.15000E-001	4.25039E-004	6	..........a	-327.68
	32	3.3	-2.60803E-001	-3.10853E-001	-2.85828E-001	1.78209E-008	-2.29343E-008	4.07552E-008	-3.11000E-001	4.34039E-004	6	..........a	-327.68
	34	3.5	-2.56837E-001	-3.06806E-001	-2.81822E-001	1.84383E-008	-2.30057E-008	4.14439E-008	-3.07000E-001	4.28373E-004	6	..........a	-327.68
	36	3.7	-2.52851E-001	-3.02873E-001	-2.77862E-001	1.88260E-008	-2.32834E-008	4.21094E-008	-3.03000E-001	4.25039E-004	6	..........a	-327.68
	38	3.9	-2.48873E-001	-2.98845E-001	-2.73859E-001	1.91087E-008	-2.31920E-008	4.23007E-008	-2.99000E-001	4.34873E-004	6	..........a	-327.68
	40	4.1	-2.44876E-001	-2.94880E-001	-2.69878E-001	1.94214E-008	-2.30614E-008	4.24827E-008	-2.95000E-001	4.27373E-004	6	..........a	-327.68
	42	4.3	-2.40856E-001	-2.90784E-001	-2.65820E-001	1.93070E-008	-2.31254E-008	4.24324E-008	-2.91000E-001	4.21373E-004	6	..........a	-327.68
	44	4.5	-2.36858E-001	-2.86830E-001	-2.61844E-001	1.93037E-008	-2.28757E-008	4.21794E-008	-2.87000E-001	4.29039E-004	6	..........a	-327.68
	46	4.7	-2.32830E-001	-2.82797E-001	-2.57814E-001	1.93887E-008	-2.27006E-008	4.20894E-008	-2.83000E-001	4.26539E-004	6	..........a	-327.68
	48	4.9	-2.28800E-001	-2.78859E-001	-2.53829E-001	1.91330E-008	-2.25490E-008	4.16820E-008	-2.79000E-001	4.26039E-004	6	..........a	-327.68
	50	5.1	-2.24862E-001	-2.74817E-001	-2.49839E-001	1.90320E-008	-2.18592E-008	4.08912E-008	-2.75000E-001	4.23706E-004	6	..........a	-327.68
	52	5.3	-2.20848E-001	-2.70883E-001	-2.45865E-001	1.88023E-008	-2.14828E-008	4.02851E-008	-2.71000E-001	4.41539E-004	6	..........a	-327.68
	54	5.5	-2.16871E-001	-2.66772E-001	-2.41821E-001	1.84559E-008	-2.09134E-008	3.93693E-008	-2.67000E-001	4.21373E-004	6	..........a	-327.68
	56	5.7	-2.12849E-001	-2.62888E-001	-2.37868E-001	1.84706E-008	-2.02250E-008	3.86956E-008	-2.63000E-001	4.05373E-004	6	..........a	-327.68
	58	5.9	-2.08846E-001	-2.58798E-001	-2.33822E-001	1.83666E-008	-1.95582E-008	3.79248E-008	-2.59000E-001	4.40206E-004	6	..........a	-327.68
	60	6.1	-2.04811E-001	-2.54868E-001	-2.29840E-001	1.80909E-008	-1.88868E-008	3.69777E-008	-2.55000E-001	4.04373E-004	6	..........a	-327.68
	62	6.3	-2.00858E-001	-2.50830E-001	-2.25844E-001	1.81239E-008	-1.83651E-008	3.64890E-008	-2.51000E-001	4.21873E-004	6	..........a	-327.68
	64	6.5	-1.96860E-001	-2.46866E-001	-2.21863E-001	1.78765E-008	-1.78390E-008	3.57155E-008	-2.47000E-001	4.21206E-004	6	..........a	-327.68
	66	6.7	-1.92888E-001	-2.42776E-001	-2.17832E-001	1.77742E-008	-1.71909E-008	3.49651E-008	-2.43000E-001	4.21873E-004	6	..........a	-327.68
	68	6.9	-1.88760E-001	-2.38845E-001	-2.13802E-001	1.77672E-008	-1.65849E-008	3.43520E-008	-2.39000E-001	4.05039E-004	6	..........a	-327.68
	70	7.1	-1.84869E-001	-2.34794E-001	-2.09831E-001	1.77508E-008	-1.62275E-008	3.39783E-008	-2.35000E-001	4.28873E-004	6	..........a	-327.68
	72	7.3	-1.80808E-001	-2.30844E-001	-2.05826E-001	1.77722E-008	-1.59168E-008	3.36890E-008	-2.31000E-001	4.23706E-004	6	..........a	-327.68
	74	7.5	-1.76832E-001	-2.26805E-001	-2.01818E-001	1.79492E-008	-1.56587E-008	3.36079E-008	-2.27000E-001	4.25206E-004	6	..........a	-327.68
	76	7.7	-1.72848E-001	-2.22843E-001	-1.97845E-001	1.80002E-008	-1.50837E-008	3.30839E-008	-2.23000E-001	4.06706E-004	6	..........a	-327.68
	78	7.9	-1.68874E-001	-2.18842E-001	-1.93858E-001	1.77172E-008	-1.47800E-008	3.24971E-008	-2.19000E-001	4.24206E-004	6	..........a	-327.68
	80	8.1	-1.64746E-001	-2.14833E-001	-1.89790E-001	1.77762E-008	-1.46386E-008	3.24148E-008	-2.15000E-001	4.28873E-004	6	..........a	-327.68
	82	8.3	-1.60802E-001	-2.10800E-001	-1.85801E-001	1.78595E-008	-1.40392E-008	3.18987E-008	-2.11000E-001	4.00206E-004	6	..........a	-327.68
	84	8.5	-1.56805E-001	-2.06853E-001	-1.81829E-001	1.78525E-008	-1.41272E-008	3.19797E-008	-2.07000E-001	4.16539E-004	6	..........a	-327.68
	86	8.7	-1.52846E-001	-2.02793E-001	-1.77820E-001	1.80269E-008	-1.37125E-008	3.17394E-008	-2.03000E-001	4.13373E-004	6	..........a	-327.68
	88	8.9	-1.48851E-001	-1.98870E-001	-1.73860E-001	1.80042E-008	-1.36468E-008	3.16510E-008	-1.99000E-001	4.19373E-004	6	..........a	-327.68
	90	9.1	-1.44866E-001	-1.94846E-001	-1.69856E-001	1.81189E-008	-1.35048E-008	3.16237E-008	-1.95000E-001	4.18373E-004	6	..........a	-327.68
	92	9.3	-1.40862E-001	-1.90874E-001	-1.65868E-001	1.81649E-008	-1.31031E-008	3.12680E-008	-1.91000E-001	4.10373E-004	6	..........a	-327.68
	94	9.5	-1.36840E-001	-1.86781E-001	-1.61810E-001	1.81906E-008	-1.28641E-008	3.10546E-008	-1.87000E-001	4.16706E-004	6	..........a	-327.68
	96	9.7	-1.32777E-001	-1.82830E-001	-1.57804E-001	1.83753E-008	-1.27407E-008	3.11160E-008	-1.83000E-001	4.11873E-004	6	..........a	-327.68
	98	9.9	-1.28839E-001	-1.78793E-001	-1.53816E-001	1.85306E-008	-1.27584E-008	3.12890E-008	-1.79000E-001	4.30206E-004	6	..........a	-327.68
	100	10.1	-1.24823E-001	-1.74864E-001	-1.49843E-001	1.85866E-008	-1.25740E-008	3.11606E-008	-1.75000E-001	4.16706E-004	6	..........a	-327.68

File: SWV_10Hz STD2 aptmch 081020_#7.DTA
EXPLAIN
TAG	SQUARE_WAVE
TITLE	LABEL	Square Wave Voltammetry	Test Identifier
DATE	LABEL	8/10/2020	Date
TIME	LABEL	13:02:18	Time
NOTES	NOTES	1	Notes...
	 STD2 aptmch 08102
PSTAT	PSTAT	REF600-24079	Potentiostat
VINIT	QUANT	-3.50000E-001	Initial E (V)
VFINAL	QUANT	-1.50000E-001	Final E (V)
STEPSIZE	QUANT	2.00000E+000	Step Size (mV)
TIMERRES	QUANT	3.33340E-005	&Timer Resolution
FREQUENCY	QUANT	1.00000E+001	Frequency (Hz)
PULSESIZE	QUANT	2.50000E+001	Pulse Size E (mV)
PULSEON	QUANT	1.00000E-001	Pulse &Time (s)
NOISEREJECT	TOGGLE	F	Noise Rejection
AREA	QUANT	2.00000E-002	Sample Area (cm^2)
IMODE	SELECTOR	1	I/E Range Mode
IRANGE	QUANT	1.00000E-003	Max Current (mA)
EQDELAY	IQUANT	10	Equil. Time (s)
IRCOMP	SELECTOR	0	IRComp
PFCOR	QUANT	5.00000E+001	PF Corr. (ohm)
CYCLES	IQUANT	101	C&ycles (#)
ELECTRODETYPE	SELECTOR	0	Electrode Type
STRIPPING	TOGGLE	F	Used for Stripping
POLARITY	TOGGLE	F	Signal Polarity
LINEFREQ	IQUANT	60	Line Frequency (Hz)
INTPERIOD	QUANT	3.3334E-005	Integration Period (s)
SEQUENCER	TOGGLE	TRUE	Run as Sequence
PSTATMODEL	IQUANT	4	Pstat Model
PSTATSECTION	LABEL	REF600-24079	Pstat Section
PSTATSERIALNO	LABEL	24079	Pstat Serial Number
CTRLMODE	IQUANT	1	Control Mode
ELECTROMETER	IQUANT	0	RE=0 or CS=1
IESTAB	IQUANT	2	I/E Stability
CASPEED	IQUANT	6	Control Amp Speed
CONVENTION	IQUANT	1	Current Convention
ICHRANGE	IQUANT	2	Ich Range
ICHRANGEMODE	TOGGLE	F	Ich Auto Range
ICHOFFSETENABLE	TOGGLE	F	Ich Offset Enable
ICHOFFSET	QUANT	0	Ich Offset (V)
ICHFILTER	IQUANT	2	Ich Filter
VCHRANGE	IQUANT	2	Vch Range
VCHRANGEMODE	TOGGLE	F	Vch Auto Range
VCHOFFSETENABLE	TOGGLE	F	Vch Offset Enable
VCHOFFSET	QUANT	0	Vch Offset (V)
VCHFILTER	IQUANT	2	Vch Filter
ACHRANGE	IQUANT	2	Ach Range
ACHOFFSETENABLE	TOGGLE	F	Ach Offset Enable
ACHOFFSET	QUANT	0	Ach Offset (V)
ACHFILTER	IQUANT	1	Ach Filter
IERANGELOWERLIMIT	IQUANT	1	I/E Range Lower Limit
IERANGEMODE	TOGGLE	F	I/E AutoRange
IERANGE	IQUANT	6	I/E Range
POSFEEDENABLE	TOGGLE	F	Positive Feedback IR Comp
POSFEEDRESISTANCE	QUANT	0	Positive Feedback Resistance (ohm)
ACHSELECT	IQUANT	0	Ach Select
SENSECABLEID	IQUANT	13	Sense Cable ID
PWRCABLEID	IQUANT	13	Power Cable ID
DCCALDATE	LABEL	6/30/2020	DC Calibration Date
ACCALDATE	LABEL	6/30/2020	AC Calibration Date
THERMOSELECT	IQUANT	1	Thermo Select
FRAMEWORKVERSION	LABEL	7.8.2	Framework Version
INSTRUMENTVERSION	LABEL	4.40	Instrument Version
CURVE	TABLE	101
	Pt	T	Vfwd	Vrev	Vstep	Ifwd	Irev	Idif	Sig	Ach	IERange	Over	Temp
	#	s	V	V	V	A	A	A	V	V	#	bits	deg C
	0	0.1	-3.24892E-001	-3.74907E-001	-3.49900E-001	-8.24813E-009	-3.81753E-008	2.99271E-008	-3.75000E-001	3.35039E-004	6	..........a	-327.68
	2	0.3	-3.20916E-001	-3.70777E-001	-3.45846E-001	6.37373E-009	-3.13571E-008	3.77308E-008	-3.71000E-001	3.20873E-004	6	..........a	-327.68
	4	0.5	-3.16792E-001	-3.66958E-001	-3.41875E-001	8.39465E-009	-2.93815E-008	3.77761E-008	-3.67000E-001	3.17873E-004	6	..........a	-327.68
	6	0.7	-3.12920E-001	-3.62811E-001	-3.37865E-001	9.32777E-009	-2.80830E-008	3.74108E-008	-3.63000E-001	3.20539E-004	6	..........a	-327.68
	8	0.9	-3.08847E-001	-3.58904E-001	-3.33876E-001	1.02802E-008	-2.71439E-008	3.74241E-008	-3.59000E-001	3.07206E-004	6	..........a	-327.68
	10	1.1	-3.04879E-001	-3.54836E-001	-3.29858E-001	1.07583E-008	-2.61401E-008	3.68984E-008	-3.55000E-001	3.23873E-004	6	..........a	-327.68
	12	1.3	-3.00921E-001	-3.50902E-001	-3.25912E-001	1.15287E-008	-2.55663E-008	3.70951E-008	-3.51000E-001	3.06039E-004	6	..........a	-327.68
	14	1.5	-2.96918E-001	-3.46888E-001	-3.21903E-001	1.21348E-008	-2.49133E-008	3.70480E-008	-3.47000E-001	3.23539E-004	6	..........a	-327.68
	16	1.7	-2.92801E-001	-3.42897E-001	-3.17849E-001	1.27219E-008	-2.45409E-008	3.72627E-008	-3.43000E-001	3.21206E-004	6	..........a	-327.68
	18	1.9	-2.88914E-001	-3.38827E-001	-3.13871E-001	1.32533E-008	-2.39861E-008	3.72394E-008	-3.39000E-001	3.14206E-004	6	..........a	-327.68
	20	2.1	-2.84799E-001	-3.34912E-001	-3.09856E-001	1.41754E-008	-2.36871E-008	3.78625E-008	-3.35000E-001	3.22873E-004	6	..........a	-327.68
	22	2.3	-2.80912E-001	-3.30827E-001	-3.05869E-001	1.47185E-008	-2.32214E-008	3.79398E-008	-3.31000E-001	3.02873E-004	6	..........a	-327.68
	24	2.5	-2.76875E-001	-3.26897E-001	-3.01886E-001	1.54826E-008	-2.32380E-008	3.87206E-008	-3.27000E-001	3.29039E-004	6	..........a	-327.68
	26	2.7	-2.72897E-001	-3.22876E-001	-2.97886E-001	1.62043E-008	-2.28467E-008	3.90510E-008	-3.23000E-001	3.17706E-004	6	..........a	-327.68
	28	2.9	-2.68899E-001	-3.18923E-001	-2.93911E-001	1.68244E-008	-2.27040E-008	3.95284E-008	-3.19000E-001	3.23039E-004	6	..........a	-327.68
	30	3.1	-2.64889E-001	-3.14869E-001	-2.89879E-001	1.75898E-008	-2.28380E-008	4.04278E-008	-3.15000E-001	3.27539E-004	6	..........a	-327.68
	32	3.3	-2.60847E-001	-3.10907E-001	-2.85877E-001	1.80655E-008	-2.27966E-008	4.08622E-008	-3.11000E-001	3.23873E-004	6	..........a	-327.68
	34	3.5	-2.56875E-001	-3.06828E-001	-2.81851E-001	1.86650E-008	-2.28643E-008	4.15293E-008	-3.07000E-001	3.42873E-004	6	..........a	-327.68
	36	3.7	-2.52902E-001	-3.02921E-001	-2.77911E-001	1.91397E-008	-2.29990E-008	4.21387E-008	-3.03000E-001	3.20039E-004	6	..........a	-327.68
	38	3.9	-2.48902E-001	-2.98860E-001	-2.73881E-001	1.92157E-008	-2.28830E-008	4.20987E-008	-2.99000E-001	3.45373E-004	6	..........a	-327.68
	40	4.1	-2.44910E-001	-2.94913E-001	-2.69912E-001	1.95574E-008	-2.31550E-008	4.27124E-008	-2.95000E-001	3.27373E-004	6	..........a	-327.68
	42	4.3	-2.40891E-001	-2.90808E-001	-2.65849E-001	1.95374E-008	-2.28073E-008	4.23447E-008	-2.91000E-001	3.25873E-004	6	..........a	-327.68
	44	4.5	-2.36889E-001	-2.86895E-001	-2.61892E-001	1.94004E-008	-2.27026E-008	4.21030E-008	-2.87000E-001	3.25206E-004	6	..........a	-327.68
	46	4.7	-2.32873E-001	-2.82820E-001	-2.57847E-001	1.94461E-008	-2.24533E-008	4.18993E-008	-2.83000E-001	3.19373E-004	6	..........a	-327.68
	48	4.9	-2.28869E-001	-2.78893E-001	-2.53881E-001	1.90807E-008	-2.21112E-008	4.11919E-008	-2.79000E-001	3.50206E-004	6	..........a	-327.68
	50	5.1	-2.24903E-001	-2.74867E-001	-2.49885E-001	1.89393E-008	-2.17529E-008	4.06922E-008	-2.75000E-001	3.20539E-004	6	..........a	-327.68
	52	5.3	-2.20899E-001	-2.70907E-001	-2.45903E-001	1.89803E-008	-2.13358E-008	4.03161E-008	-2.71000E-001	3.35539E-004	6	..........a	-327.68
	54	5.5	-2.16910E-001	-2.66795E-001	-2.41852E-001	1.88336E-008	-2.05937E-008	3.94274E-008	-2.67000E-001	3.20039E-004	6	..........a	-327.68
	56	5.7	-2.12902E-001	-2.62948E-001	-2.37925E-001	1.85649E-008	-1.98959E-008	3.84609E-008	-2.63000E-001	3.36706E-004	6	..........a	-327.68
	58	5.9	-2.08885E-001	-2.58817E-001	-2.33851E-001	1.84946E-008	-1.93892E-008	3.78838E-008	-2.59000E-001	3.38206E-004	6	..........a	-327.68
	60	6.1	-2.04846E-001	-2.54928E-001	-2.29887E-001	1.84546E-008	-1.90208E-008	3.74754E-008	-2.55000E-001	3.26873E-004	6	..........a	-327.68
	62	6.3	-2.00885E-001	-2.50854E-001	-2.25869E-001	1.82022E-008	-1.81334E-008	3.63356E-008	-2.51000E-001	3.30039E-004	6	..........a	-327.68
	64	6.5	-1.96897E-001	-2.46911E-001	-2.21904E-001	1.83082E-008	-1.76703E-008	3.59786E-008	-2.47000E-001	3.25706E-004	6	..........a	-327.68
	66	6.7	-1.92905E-001	-2.42780E-001	-2.17842E-001	1.82406E-008	-1.70313E-008	3.52718E-008	-2.43000E-001	3.34873E-004	6	..........a	-327.68
	68	6.9	-1.88806E-001	-2.38938E-001	-2.13872E-001	1.80532E-008	-1.65489E-008	3.46021E-008	-2.39000E-001	3.04039E-004	6	..........a	-327.68
	70	7.1	-1.84892E-001	-2.34812E-001	-2.09852E-001	1.79992E-008	-1.61705E-008	3.41697E-008	-2.35000E-001	3.32373E-004	6	..........a	-327.68
	72	7.3	-1.80842E-001	-2.30875E-001	-2.05858E-001	1.80109E-008	-1.58624E-008	3.38733E-008	-2.31000E-001	3.27539E-004	6	..........a	-327.68
	74	7.5	-1.76869E-001	-2.26828E-001	-2.01849E-001	1.80055E-008	-1.53160E-008	3.33216E-008	-2.27000E-001	3.24373E-004	6	..........a	-327.68
	76	7.7	-1.72870E-001	-2.22886E-001	-1.97878E-001	1.79935E-008	-1.50843E-008	3.30779E-008	-2.23000E-001	3.29706E-004	6	..........a	-327.68
	78	7.9	-1.68894E-001	-2.18876E-001	-1.93885E-001	1.80772E-008	-1.46033E-008	3.26805E-008	-2.19000E-001	3.05373E-004	6	..........a	-327.68
	80	8.1	-1.64783E-001	-2.14882E-001	-1.89832E-001	1.80482E-008	-1.43822E-008	3.24305E-008	-2.15000E-001	3.25206E-004	6	..........a	-327.68
	82	8.3	-1.60926E-001	-2.10829E-001	-1.85877E-001	1.82342E-008	-1.41419E-008	3.23761E-008	-2.11000E-001	3.09873E-004	6	..........a	-327.68
	84	8.5	-1.56832E-001	-2.06902E-001	-1.81867E-001	1.80946E-008	-1.38955E-008	3.19901E-008	-2.07000E-001	3.29706E-004	6	..........a	-327.68
	86	8.7	-1.52914E-001	-2.02815E-001	-1.77864E-001	1.83026E-008	-1.35688E-008	3.18714E-008	-2.03000E-001	3.30206E-004	6	..........a	-327.68
	88	8.9	-1.48891E-001	-1.98918E-001	-1.73905E-001	1.82976E-008	-1.35741E-008	3.18717E-008	-1.99000E-001	2.97539E-004	6	..........a	-327.68
	90	9.1	-1.44885E-001	-1.94856E-001	-1.69870E-001	1.84016E-008	-1.31054E-008	3.15070E-008	-1.95000E-001	3.29206E-004	6	..........a	-327.68
	92	9.3	-1.40897E-001	-1.90923E-001	-1.65910E-001	1.85349E-008	-1.29721E-008	3.15070E-008	-1.91000E-001	3.19206E-004	6	..........a	-327.68
	94	9.5	-1.36868E-001	-1.86801E-001	-1.61834E-001	1.86846E-008	-1.29574E-008	3.16420E-008	-1.87000E-001	3.36706E-004	6	..........a	-327.68
	96	9.7	-1.32826E-001	-1.82874E-001	-1.57850E-001	1.87316E-008	-1.27447E-008	3.14763E-008	-1.83000E-001	3.20373E-004	6	..........a	-327.68
	98	9.9	-1.28857E-001	-1.78804E-001	-1.53830E-001	1.87706E-008	-1.26750E-008	3.14457E-008	-1.79000E-001	3.22039E-004	6	..........a	-327.68
	100	10.1	-1.24862E-001	-1.74889E-001	-1.49875E-001	1.89023E-008	-1.24910E-008	3.13933E-008	-1.75000E-001	3.33206E-004	6	..........a	-327.68