Folder: EchemAnalysis_AMA/C-COM2

Note: README.md
# EchemAnalysis_AMA

This repository contains the scripts for automated baseline analysis and visualization of electrochemical data. Baseline and peak analysis of voltammograms is accomplished by a novel area-maximizing algortihm (AMA) that captures peaks even in non-ideal, noisy, and sloped signals.

This open-source program was created to expedite electrochemical data analysis and support the advancement of electrochemical biosensors.

For more detailed instructions for use, refer to: https://docs.google.com/document/d/1B-2fkvCbE3QyiXFA00YbSR5AxEci5_CkFwBRkM6wl3s/edit?usp=sharing

# Script Directory

calcPeaks - Calculates peak heights/areas using AMA, given input data of file type (.DTA or .TXT) and saves results to Excel file(s) for further analysis and plotting.

calcExcelPeaks - Calculates peak heights/areas using AMA, given input data of file type (Excel) and saves results to an Excel file for further analysis and plotting.

plotConcentration - Plots concentration curves of peak heights, peak areas, and normalized signal change given Excel file(s) from calcPeaks or calcExcelPeaks.

plotFrequency - Plots frequency maps of peak heights and normalized signal change given an Excel file from calcPeaks or calcExcelPeaks.

concentrationCurves - Contains functions for file extraction, peak analysis, normalization, and plotting for concentration curves. Called upon by all other scripts.

frequencyMaps - Contains functions for file extraction, peak analysis, normalization, and plotting for frequency maps. Called upon by all other scripts.

File: SWV_10Hz STD2 10  fgml 081020_#3.DTA
EXPLAIN
TAG	SQUARE_WAVE
TITLE	LABEL	Square Wave Voltammetry	Test Identifier
DATE	LABEL	8/10/2020	Date
TIME	LABEL	18:09:40	Time
NOTES	NOTES	1	Notes...
	 STD2, 10  fg/mL 08102
PSTAT	PSTAT	REF600-24079	Potentiostat
VINIT	QUANT	-3.50000E-001	Initial E (V)
VFINAL	QUANT	-1.50000E-001	Final E (V)
STEPSIZE	QUANT	2.00000E+000	Step Size (mV)
TIMERRES	QUANT	3.33340E-005	&Timer Resolution
FREQUENCY	QUANT	1.00000E+001	Frequency (Hz)
PULSESIZE	QUANT	2.50000E+001	Pulse Size E (mV)
PULSEON	QUANT	1.00000E-001	Pulse &Time (s)
NOISEREJECT	TOGGLE	F	Noise Rejection
AREA	QUANT	2.00000E-002	Sample Area (cm^2)
IMODE	SELECTOR	1	I/E Range Mode
IRANGE	QUANT	1.00000E-003	Max Current (mA)
EQDELAY	IQUANT	10	Equil. Time (s)
IRCOMP	SELECTOR	0	IRComp
PFCOR	QUANT	5.00000E+001	PF Corr. (ohm)
CYCLES	IQUANT	101	C&ycles (#)
ELECTRODETYPE	SELECTOR	0	Electrode Type
STRIPPING	TOGGLE	F	Used for Stripping
POLARITY	TOGGLE	F	Signal Polarity
LINEFREQ	IQUANT	60	Line Frequency (Hz)
INTPERIOD	QUANT	3.3334E-005	Integration Period (s)
SEQUENCER	TOGGLE	TRUE	Run as Sequence
PSTATMODEL	IQUANT	4	Pstat Model
PSTATSECTION	LABEL	REF600-24079	Pstat Section
PSTATSERIALNO	LABEL	24079	Pstat Serial Number
CTRLMODE	IQUANT	1	Control Mode
ELECTROMETER	IQUANT	0	RE=0 or CS=1
IESTAB	IQUANT	2	I/E Stability
CASPEED	IQUANT	6	Control Amp Speed
CONVENTION	IQUANT	1	Current Convention
ICHRANGE	IQUANT	2	Ich Range
ICHRANGEMODE	TOGGLE	F	Ich Auto Range
ICHOFFSETENABLE	TOGGLE	F	Ich Offset Enable
ICHOFFSET	QUANT	0	Ich Offset (V)
ICHFILTER	IQUANT	2	Ich Filter
VCHRANGE	IQUANT	2	Vch Range
VCHRANGEMODE	TOGGLE	F	Vch Auto Range
VCHOFFSETENABLE	TOGGLE	F	Vch Offset Enable
VCHOFFSET	QUANT	0	Vch Offset (V)
VCHFILTER	IQUANT	2	Vch Filter
ACHRANGE	IQUANT	2	Ach Range
ACHOFFSETENABLE	TOGGLE	F	Ach Offset Enable
ACHOFFSET	QUANT	0	Ach Offset (V)
ACHFILTER	IQUANT	1	Ach Filter
IERANGELOWERLIMIT	IQUANT	1	I/E Range Lower Limit
IERANGEMODE	TOGGLE	F	I/E AutoRange
IERANGE	IQUANT	6	I/E Range
POSFEEDENABLE	TOGGLE	F	Positive Feedback IR Comp
POSFEEDRESISTANCE	QUANT	0	Positive Feedback Resistance (ohm)
ACHSELECT	IQUANT	0	Ach Select
SENSECABLEID	IQUANT	13	Sense Cable ID
PWRCABLEID	IQUANT	13	Power Cable ID
DCCALDATE	LABEL	6/30/2020	DC Calibration Date
ACCALDATE	LABEL	6/30/2020	AC Calibration Date
THERMOSELECT	IQUANT	1	Thermo Select
FRAMEWORKVERSION	LABEL	7.8.2	Framework Version
INSTRUMENTVERSION	LABEL	4.40	Instrument Version
CURVE	TABLE	101
	Pt	T	Vfwd	Vrev	Vstep	Ifwd	Irev	Idif	Sig	Ach	IERange	Over	Temp
	#	s	V	V	V	A	A	A	V	V	#	bits	deg C
	0	0.1	-3.24879E-001	-3.74891E-001	-3.49885E-001	-9.10880E-008	-1.76033E-007	8.49451E-008	-3.75000E-001	3.67373E-004	6	..........a	-327.68
	2	0.3	-3.20885E-001	-3.70776E-001	-3.45831E-001	-7.25273E-008	-1.64518E-007	9.19904E-008	-3.71000E-001	3.75206E-004	6	..........a	-327.68
	4	0.5	-3.16829E-001	-3.66885E-001	-3.41857E-001	-6.76960E-008	-1.57482E-007	8.97861E-008	-3.67000E-001	3.75539E-004	6	..........a	-327.68
	6	0.7	-3.12907E-001	-3.62808E-001	-3.37858E-001	-6.37195E-008	-1.51786E-007	8.80662E-008	-3.63000E-001	3.74039E-004	6	..........a	-327.68
	8	0.9	-3.08839E-001	-3.58867E-001	-3.33853E-001	-5.99347E-008	-1.46001E-007	8.60663E-008	-3.59000E-001	3.64039E-004	6	..........a	-327.68
	10	1.1	-3.04911E-001	-3.54827E-001	-3.29869E-001	-5.62979E-008	-1.40507E-007	8.42087E-008	-3.55000E-001	3.67706E-004	6	..........a	-327.68
	12	1.3	-3.00901E-001	-3.50896E-001	-3.25899E-001	-5.27611E-008	-1.35294E-007	8.25328E-008	-3.51000E-001	3.58039E-004	6	..........a	-327.68
	14	1.5	-2.96907E-001	-3.46878E-001	-3.21892E-001	-4.93840E-008	-1.30397E-007	8.10126E-008	-3.47000E-001	3.65039E-004	6	..........a	-327.68
	16	1.7	-2.92803E-001	-3.42865E-001	-3.17834E-001	-4.63510E-008	-1.25507E-007	7.91561E-008	-3.43000E-001	3.69373E-004	6	..........a	-327.68
	18	1.9	-2.88939E-001	-3.38827E-001	-3.13883E-001	-4.30609E-008	-1.20946E-007	7.78856E-008	-3.39000E-001	3.69373E-004	6	..........a	-327.68
	20	2.1	-2.84850E-001	-3.34878E-001	-3.09864E-001	-3.99212E-008	-1.16733E-007	7.68114E-008	-3.35000E-001	3.59706E-004	6	..........a	-327.68
	22	2.3	-2.80939E-001	-3.30814E-001	-3.05877E-001	-3.67097E-008	-1.12407E-007	7.56970E-008	-3.31000E-001	3.66873E-004	6	..........a	-327.68
	24	2.5	-2.76862E-001	-3.26878E-001	-3.01870E-001	-3.37810E-008	-1.08372E-007	7.45912E-008	-3.27000E-001	3.55373E-004	6	..........a	-327.68
	26	2.7	-2.72900E-001	-3.22857E-001	-2.97878E-001	-3.04360E-008	-1.04638E-007	7.42024E-008	-3.23000E-001	3.51373E-004	6	..........a	-327.68
	28	2.9	-2.68887E-001	-3.18855E-001	-2.93871E-001	-2.75959E-008	-1.01072E-007	7.34763E-008	-3.19000E-001	3.52373E-004	6	..........a	-327.68
	30	3.1	-2.64926E-001	-3.14866E-001	-2.89896E-001	-2.46912E-008	-9.80139E-008	7.33227E-008	-3.15000E-001	3.78039E-004	6	..........a	-327.68
	32	3.3	-2.60822E-001	-3.10879E-001	-2.85851E-001	-2.22009E-008	-9.45311E-008	7.23302E-008	-3.11000E-001	3.63873E-004	6	..........a	-327.68
	34	3.5	-2.56878E-001	-3.06830E-001	-2.81854E-001	-1.95729E-008	-9.14164E-008	7.18435E-008	-3.07000E-001	3.59039E-004	6	..........a	-327.68
	36	3.7	-2.52846E-001	-3.02906E-001	-2.77876E-001	-1.70946E-008	-8.85770E-008	7.14824E-008	-3.03000E-001	3.49539E-004	6	..........a	-327.68
	38	3.9	-2.48903E-001	-2.98863E-001	-2.73883E-001	-1.50463E-008	-8.58043E-008	7.07580E-008	-2.99000E-001	3.58206E-004	6	..........a	-327.68
	40	4.1	-2.44887E-001	-2.94883E-001	-2.69885E-001	-1.29431E-008	-8.30743E-008	7.01313E-008	-2.95000E-001	3.62206E-004	6	..........a	-327.68
	42	4.3	-2.40949E-001	-2.90811E-001	-2.65880E-001	-1.09301E-008	-8.03020E-008	6.93718E-008	-2.91000E-001	3.73706E-004	6	..........a	-327.68
	44	4.5	-2.36868E-001	-2.86867E-001	-2.61867E-001	-8.98356E-009	-7.79150E-008	6.89314E-008	-2.87000E-001	3.68539E-004	6	..........a	-327.68
	46	4.7	-2.32884E-001	-2.82816E-001	-2.57850E-001	-7.38036E-009	-7.53740E-008	6.79937E-008	-2.83000E-001	3.73206E-004	6	..........a	-327.68
	48	4.9	-2.28853E-001	-2.78871E-001	-2.53862E-001	-5.91050E-009	-7.30624E-008	6.71519E-008	-2.79000E-001	3.82873E-004	6	..........a	-327.68
	50	5.1	-2.24879E-001	-2.74854E-001	-2.49866E-001	-4.34664E-009	-7.07754E-008	6.64288E-008	-2.75000E-001	3.71539E-004	6	..........a	-327.68
	52	5.3	-2.20876E-001	-2.70872E-001	-2.45874E-001	-3.25683E-009	-6.80861E-008	6.48293E-008	-2.71000E-001	3.84539E-004	6	..........a	-327.68
	54	5.5	-2.16953E-001	-2.66782E-001	-2.41867E-001	-1.85599E-009	-6.58175E-008	6.39615E-008	-2.67000E-001	3.70706E-004	6	..........a	-327.68
	56	5.7	-2.12885E-001	-2.62885E-001	-2.37885E-001	-4.14803E-010	-6.32435E-008	6.28287E-008	-2.63000E-001	3.67373E-004	6	..........a	-327.68
	58	5.9	-2.08889E-001	-2.58813E-001	-2.33851E-001	5.22983E-010	-6.11812E-008	6.17042E-008	-2.59000E-001	3.73873E-004	6	..........a	-327.68
	60	6.1	-2.04841E-001	-2.54887E-001	-2.29864E-001	1.88316E-009	-5.87649E-008	6.06481E-008	-2.55000E-001	3.67706E-004	6	..........a	-327.68
	62	6.3	-2.00894E-001	-2.50841E-001	-2.25868E-001	2.71793E-009	-5.66730E-008	5.93909E-008	-2.51000E-001	3.67039E-004	6	..........a	-327.68
	64	6.5	-1.96871E-001	-2.46865E-001	-2.21868E-001	3.66472E-009	-5.44894E-008	5.81541E-008	-2.47000E-001	3.62873E-004	6	..........a	-327.68
	66	6.7	-1.92892E-001	-2.42779E-001	-2.17835E-001	4.42415E-009	-5.23114E-008	5.67356E-008	-2.43000E-001	3.60373E-004	6	..........a	-327.68
	68	6.9	-1.88795E-001	-2.38854E-001	-2.13825E-001	5.52295E-009	-5.04138E-008	5.59368E-008	-2.39000E-001	3.56039E-004	6	..........a	-327.68
	70	7.1	-1.84916E-001	-2.34808E-001	-2.09862E-001	6.31639E-009	-4.86079E-008	5.49243E-008	-2.35000E-001	3.44539E-004	6	..........a	-327.68
	72	7.3	-1.80809E-001	-2.30865E-001	-2.05837E-001	7.25517E-009	-4.69307E-008	5.41859E-008	-2.31000E-001	3.53206E-004	6	..........a	-327.68
	74	7.5	-1.76869E-001	-2.26817E-001	-2.01843E-001	8.12528E-009	-4.53565E-008	5.34818E-008	-2.27000E-001	3.49206E-004	6	..........a	-327.68
	76	7.7	-1.72852E-001	-2.22870E-001	-1.97861E-001	8.91705E-009	-4.38207E-008	5.27377E-008	-2.23000E-001	3.46039E-004	6	..........a	-327.68
	78	7.9	-1.68875E-001	-2.18868E-001	-1.93872E-001	9.84584E-009	-4.22241E-008	5.20700E-008	-2.19000E-001	3.45206E-004	6	..........a	-327.68
	80	8.1	-1.64730E-001	-2.14854E-001	-1.89792E-001	1.07906E-008	-4.08566E-008	5.16472E-008	-2.15000E-001	3.41706E-004	6	..........a	-327.68
	82	8.3	-1.60931E-001	-2.10826E-001	-1.85878E-001	1.14304E-008	-3.95581E-008	5.09885E-008	-2.11000E-001	3.37873E-004	6	..........a	-327.68
	84	8.5	-1.56809E-001	-2.06889E-001	-1.81849E-001	1.22265E-008	-3.81063E-008	5.03327E-008	-2.07000E-001	3.47873E-004	6	..........a	-327.68
	86	8.7	-1.52905E-001	-2.02822E-001	-1.77863E-001	1.30792E-008	-3.71418E-008	5.02211E-008	-2.03000E-001	3.41706E-004	6	..........a	-327.68
	88	8.9	-1.48847E-001	-1.98893E-001	-1.73870E-001	1.39450E-008	-3.57496E-008	4.96947E-008	-1.99000E-001	3.37373E-004	6	..........a	-327.68
	90	9.1	-1.44887E-001	-1.94858E-001	-1.69873E-001	1.46348E-008	-3.47682E-008	4.94029E-008	-1.95000E-001	3.37206E-004	6	..........a	-327.68
	92	9.3	-1.40892E-001	-1.90881E-001	-1.65886E-001	1.53722E-008	-3.37404E-008	4.91126E-008	-1.91000E-001	3.32373E-004	6	..........a	-327.68
	94	9.5	-1.36909E-001	-1.86828E-001	-1.61868E-001	1.59729E-008	-3.27412E-008	4.87142E-008	-1.87000E-001	3.35706E-004	6	..........a	-327.68
	96	9.7	-1.32784E-001	-1.82861E-001	-1.57823E-001	1.66604E-008	-3.18011E-008	4.84615E-008	-1.83000E-001	3.30706E-004	6	..........a	-327.68
	98	9.9	-1.28850E-001	-1.78815E-001	-1.53832E-001	1.72151E-008	-3.11150E-008	4.83302E-008	-1.79000E-001	3.46373E-004	6	..........a	-327.68
	100	10.1	-1.24829E-001	-1.74885E-001	-1.49857E-001	1.78369E-008	-3.03003E-008	4.81371E-008	-1.75000E-001	3.37539E-004	6	..........a	-327.68

File: SWV_10Hz STD2 10  fgml 081020_#4.DTA
EXPLAIN
TAG	SQUARE_WAVE
TITLE	LABEL	Square Wave Voltammetry	Test Identifier
DATE	LABEL	8/10/2020	Date
TIME	LABEL	18:10:01	Time
NOTES	NOTES	1	Notes...
	 STD2, 10  fg/mL 08102
PSTAT	PSTAT	REF600-24079	Potentiostat
VINIT	QUANT	-3.50000E-001	Initial E (V)
VFINAL	QUANT	-1.50000E-001	Final E (V)
STEPSIZE	QUANT	2.00000E+000	Step Size (mV)
TIMERRES	QUANT	3.33340E-005	&Timer Resolution
FREQUENCY	QUANT	1.00000E+001	Frequency (Hz)
PULSESIZE	QUANT	2.50000E+001	Pulse Size E (mV)
PULSEON	QUANT	1.00000E-001	Pulse &Time (s)
NOISEREJECT	TOGGLE	F	Noise Rejection
AREA	QUANT	2.00000E-002	Sample Area (cm^2)
IMODE	SELECTOR	1	I/E Range Mode
IRANGE	QUANT	1.00000E-003	Max Current (mA)
EQDELAY	IQUANT	10	Equil. Time (s)
IRCOMP	SELECTOR	0	IRComp
PFCOR	QUANT	5.00000E+001	PF Corr. (ohm)
CYCLES	IQUANT	101	C&ycles (#)
ELECTRODETYPE	SELECTOR	0	Electrode Type
STRIPPING	TOGGLE	F	Used for Stripping
POLARITY	TOGGLE	F	Signal Polarity
LINEFREQ	IQUANT	60	Line Frequency (Hz)
INTPERIOD	QUANT	3.3334E-005	Integration Period (s)
SEQUENCER	TOGGLE	TRUE	Run as Sequence
PSTATMODEL	IQUANT	4	Pstat Model
PSTATSECTION	LABEL	REF600-24079	Pstat Section
PSTATSERIALNO	LABEL	24079	Pstat Serial Number
CTRLMODE	IQUANT	1	Control Mode
ELECTROMETER	IQUANT	0	RE=0 or CS=1
IESTAB	IQUANT	2	I/E Stability
CASPEED	IQUANT	6	Control Amp Speed
CONVENTION	IQUANT	1	Current Convention
ICHRANGE	IQUANT	2	Ich Range
ICHRANGEMODE	TOGGLE	F	Ich Auto Range
ICHOFFSETENABLE	TOGGLE	F	Ich Offset Enable
ICHOFFSET	QUANT	0	Ich Offset (V)
ICHFILTER	IQUANT	2	Ich Filter
VCHRANGE	IQUANT	2	Vch Range
VCHRANGEMODE	TOGGLE	F	Vch Auto Range
VCHOFFSETENABLE	TOGGLE	F	Vch Offset Enable
VCHOFFSET	QUANT	0	Vch Offset (V)
VCHFILTER	IQUANT	2	Vch Filter
ACHRANGE	IQUANT	2	Ach Range
ACHOFFSETENABLE	TOGGLE	F	Ach Offset Enable
ACHOFFSET	QUANT	0	Ach Offset (V)
ACHFILTER	IQUANT	1	Ach Filter
IERANGELOWERLIMIT	IQUANT	1	I/E Range Lower Limit
IERANGEMODE	TOGGLE	F	I/E AutoRange
IERANGE	IQUANT	6	I/E Range
POSFEEDENABLE	TOGGLE	F	Positive Feedback IR Comp
POSFEEDRESISTANCE	QUANT	0	Positive Feedback Resistance (ohm)
ACHSELECT	IQUANT	0	Ach Select
SENSECABLEID	IQUANT	13	Sense Cable ID
PWRCABLEID	IQUANT	13	Power Cable ID
DCCALDATE	LABEL	6/30/2020	DC Calibration Date
ACCALDATE	LABEL	6/30/2020	AC Calibration Date
THERMOSELECT	IQUANT	1	Thermo Select
FRAMEWORKVERSION	LABEL	7.8.2	Framework Version
INSTRUMENTVERSION	LABEL	4.40	Instrument Version
CURVE	TABLE	101
	Pt	T	Vfwd	Vrev	Vstep	Ifwd	Irev	Idif	Sig	Ach	IERange	Over	Temp
	#	s	V	V	V	A	A	A	V	V	#	bits	deg C
	0	0.1	-3.24889E-001	-3.74887E-001	-3.49888E-001	-8.75796E-008	-1.69880E-007	8.23008E-008	-3.75000E-001	3.60206E-004	6	..........a	-327.68
	2	0.3	-3.20881E-001	-3.70783E-001	-3.45832E-001	-6.90552E-008	-1.58454E-007	8.93984E-008	-3.71000E-001	3.62539E-004	6	..........a	-327.68
	4	0.5	-3.16814E-001	-3.66898E-001	-3.41856E-001	-6.45110E-008	-1.52119E-007	8.76085E-008	-3.67000E-001	3.67039E-004	6	..........a	-327.68
	6	0.7	-3.12897E-001	-3.62811E-001	-3.37854E-001	-6.07365E-008	-1.46692E-007	8.59559E-008	-3.63000E-001	3.71039E-004	6	..........a	-327.68
	8	0.9	-3.08855E-001	-3.58871E-001	-3.33863E-001	-5.71460E-008	-1.41263E-007	8.41167E-008	-3.59000E-001	3.66373E-004	6	..........a	-327.68
	10	1.1	-3.04910E-001	-3.54831E-001	-3.29871E-001	-5.36206E-008	-1.36008E-007	8.23878E-008	-3.55000E-001	3.48539E-004	6	..........a	-327.68
	12	1.3	-3.00894E-001	-3.50890E-001	-3.25892E-001	-5.02411E-008	-1.31155E-007	8.09143E-008	-3.51000E-001	3.57206E-004	6	..........a	-327.68
	14	1.5	-2.96900E-001	-3.46880E-001	-3.21890E-001	-4.71668E-008	-1.26189E-007	7.90224E-008	-3.47000E-001	3.73206E-004	6	..........a	-327.68
	16	1.7	-2.92741E-001	-3.42841E-001	-3.17791E-001	-4.39547E-008	-1.21926E-007	7.79709E-008	-3.43000E-001	3.71706E-004	6	..........a	-327.68
	18	1.9	-2.88931E-001	-3.38823E-001	-3.13877E-001	-4.09090E-008	-1.17421E-007	7.65117E-008	-3.39000E-001	3.55039E-004	6	..........a	-327.68
	20	2.1	-2.84822E-001	-3.34879E-001	-3.09850E-001	-3.79489E-008	-1.13105E-007	7.51562E-008	-3.35000E-001	3.60873E-004	6	..........a	-327.68
	22	2.3	-2.80935E-001	-3.30810E-001	-3.05873E-001	-3.48262E-008	-1.09350E-007	7.45241E-008	-3.31000E-001	3.60373E-004	6	..........a	-327.68
	24	2.5	-2.76884E-001	-3.26881E-001	-3.01882E-001	-3.16838E-008	-1.05490E-007	7.38067E-008	-3.27000E-001	3.56206E-004	6	..........a	-327.68
	26	2.7	-2.72886E-001	-3.22868E-001	-2.97877E-001	-2.90654E-008	-1.02035E-007	7.29693E-008	-3.23000E-001	3.47873E-004	6	..........a	-327.68
	28	2.9	-2.68895E-001	-3.18871E-001	-2.93883E-001	-2.62944E-008	-9.85900E-008	7.22955E-008	-3.19000E-001	3.61373E-004	6	..........a	-327.68
	30	3.1	-2.64930E-001	-3.14883E-001	-2.89906E-001	-2.34837E-008	-9.52435E-008	7.17598E-008	-3.15000E-001	3.58539E-004	6	..........a	-327.68
	32	3.3	-2.60824E-001	-3.10893E-001	-2.85858E-001	-2.11044E-008	-9.20281E-008	7.09237E-008	-3.11000E-001	3.68539E-004	6	..........a	-327.68
	34	3.5	-2.56886E-001	-3.06835E-001	-2.81860E-001	-1.86458E-008	-8.90817E-008	7.04360E-008	-3.07000E-001	3.40039E-004	6	..........a	-327.68
	36	3.7	-2.52854E-001	-3.02907E-001	-2.77881E-001	-1.62638E-008	-8.64431E-008	7.01793E-008	-3.03000E-001	3.52206E-004	6	..........a	-327.68
	38	3.9	-2.48900E-001	-2.98867E-001	-2.73883E-001	-1.41506E-008	-8.37217E-008	6.95712E-008	-2.99000E-001	3.51373E-004	6	..........a	-327.68
	40	4.1	-2.44884E-001	-2.94874E-001	-2.69879E-001	-1.19649E-008	-8.09887E-008	6.90238E-008	-2.95000E-001	3.53706E-004	6	..........a	-327.68
	42	4.3	-2.40939E-001	-2.90803E-001	-2.65871E-001	-1.02254E-008	-7.83517E-008	6.81263E-008	-2.91000E-001	3.58039E-004	6	..........a	-327.68
	44	4.5	-2.36863E-001	-2.86878E-001	-2.61871E-001	-8.24880E-009	-7.62308E-008	6.79820E-008	-2.87000E-001	3.46539E-004	6	..........a	-327.68
	46	4.7	-2.32867E-001	-2.82808E-001	-2.57837E-001	-6.73227E-009	-7.39292E-008	6.71969E-008	-2.83000E-001	3.76873E-004	6	..........a	-327.68
	48	4.9	-2.28826E-001	-2.78874E-001	-2.53850E-001	-5.38477E-009	-7.14458E-008	6.60611E-008	-2.79000E-001	3.64373E-004	6	..........a	-327.68
	50	5.1	-2.24875E-001	-2.74857E-001	-2.49866E-001	-3.78290E-009	-6.90379E-008	6.52550E-008	-2.75000E-001	3.62539E-004	6	..........a	-327.68
	52	5.3	-2.20871E-001	-2.70880E-001	-2.45875E-001	-2.43906E-009	-6.68056E-008	6.43665E-008	-2.71000E-001	3.64039E-004	6	..........a	-327.68
	54	5.5	-2.16961E-001	-2.66779E-001	-2.41870E-001	-1.11689E-009	-6.44643E-008	6.33474E-008	-2.67000E-001	3.65873E-004	6	..........a	-327.68
	56	5.7	-2.12868E-001	-2.62863E-001	-2.37865E-001	5.02564E-011	-6.20216E-008	6.20719E-008	-2.63000E-001	3.63873E-004	6	..........a	-327.68
	58	5.9	-2.08884E-001	-2.58807E-001	-2.33846E-001	1.09272E-009	-5.99410E-008	6.10338E-008	-2.59000E-001	3.65539E-004	6	..........a	-327.68
	60	6.1	-2.04824E-001	-2.54885E-001	-2.29855E-001	2.13986E-009	-5.76761E-008	5.98159E-008	-2.55000E-001	3.64539E-004	6	..........a	-327.68
	62	6.3	-2.00897E-001	-2.50852E-001	-2.25875E-001	2.82894E-009	-5.56665E-008	5.84954E-008	-2.51000E-001	3.46206E-004	6	..........a	-327.68
	64	6.5	-1.96889E-001	-2.46867E-001	-2.21878E-001	3.87408E-009	-5.35332E-008	5.74073E-008	-2.47000E-001	3.47373E-004	6	..........a	-327.68
	66	6.7	-1.92912E-001	-2.42785E-001	-2.17849E-001	4.83720E-009	-5.15690E-008	5.64062E-008	-2.43000E-001	3.46873E-004	6	..........a	-327.68
	68	6.9	-1.88788E-001	-2.38869E-001	-2.13828E-001	5.76965E-009	-4.95964E-008	5.53660E-008	-2.39000E-001	3.49539E-004	6	..........a	-327.68
	70	7.1	-1.84914E-001	-2.34810E-001	-2.09862E-001	6.56109E-009	-4.78722E-008	5.44333E-008	-2.35000E-001	3.37039E-004	6	..........a	-327.68
	72	7.3	-1.80790E-001	-2.30862E-001	-2.05826E-001	7.31585E-009	-4.61233E-008	5.34391E-008	-2.31000E-001	3.42039E-004	6	..........a	-327.68
	74	7.5	-1.76868E-001	-2.26820E-001	-2.01844E-001	8.52534E-009	-4.47814E-008	5.33068E-008	-2.27000E-001	3.49539E-004	6	..........a	-327.68
	76	7.7	-1.72871E-001	-2.22878E-001	-1.97874E-001	9.29677E-009	-4.31032E-008	5.24000E-008	-2.23000E-001	3.22206E-004	6	..........a	-327.68
	78	7.9	-1.68870E-001	-2.18875E-001	-1.93872E-001	1.00892E-008	-4.18467E-008	5.19359E-008	-2.19000E-001	3.38539E-004	6	..........a	-327.68
	80	8.1	-1.64714E-001	-2.14858E-001	-1.89786E-001	1.08000E-008	-4.05769E-008	5.13769E-008	-2.15000E-001	3.34539E-004	6	..........a	-327.68
	82	8.3	-1.60914E-001	-2.10830E-001	-1.85872E-001	1.15414E-008	-3.90794E-008	5.06208E-008	-2.11000E-001	3.24539E-004	6	..........a	-327.68
	84	8.5	-1.56795E-001	-2.06888E-001	-1.81841E-001	1.24685E-008	-3.78576E-008	5.03261E-008	-2.07000E-001	3.27039E-004	6	..........a	-327.68
	86	8.7	-1.52903E-001	-2.02823E-001	-1.77863E-001	1.31963E-008	-3.69388E-008	5.01350E-008	-2.03000E-001	3.15539E-004	6	..........a	-327.68
	88	8.9	-1.48838E-001	-1.98904E-001	-1.73871E-001	1.37990E-008	-3.56203E-008	4.94193E-008	-1.99000E-001	3.20539E-004	6	..........a	-327.68
	90	9.1	-1.44895E-001	-1.94864E-001	-1.69880E-001	1.45904E-008	-3.46422E-008	4.92326E-008	-1.95000E-001	3.19373E-004	6	..........a	-327.68
	92	9.3	-1.40880E-001	-1.90884E-001	-1.65882E-001	1.54949E-008	-3.35614E-008	4.90562E-008	-1.91000E-001	3.22539E-004	6	..........a	-327.68
	94	9.5	-1.36913E-001	-1.86824E-001	-1.61868E-001	1.60223E-008	-3.26129E-008	4.86352E-008	-1.87000E-001	3.11206E-004	6	..........a	-327.68
	96	9.7	-1.32800E-001	-1.82875E-001	-1.57837E-001	1.66880E-008	-3.18151E-008	4.85032E-008	-1.83000E-001	3.40373E-004	6	..........a	-327.68
	98	9.9	-1.28857E-001	-1.78816E-001	-1.53837E-001	1.73148E-008	-3.09884E-008	4.83031E-008	-1.79000E-001	3.20206E-004	6	..........a	-327.68
	100	10.1	-1.24852E-001	-1.74887E-001	-1.49869E-001	1.79222E-008	-3.00652E-008	4.79874E-008	-1.75000E-001	3.38873E-004	6	..........a	-327.68