Folder: EchemAnalysis_AMA/C-COM3 (part 2)

File: SWV_10Hz STD3 10  fgml 081020_#3.DTA
EXPLAIN
TAG	SQUARE_WAVE
TITLE	LABEL	Square Wave Voltammetry	Test Identifier
DATE	LABEL	8/10/2020	Date
TIME	LABEL	17:54:10	Time
NOTES	NOTES	1	Notes...
	 STD3, 10  fg/mL 08102
PSTAT	PSTAT	REF600-24079	Potentiostat
VINIT	QUANT	-3.50000E-001	Initial E (V)
VFINAL	QUANT	-1.50000E-001	Final E (V)
STEPSIZE	QUANT	2.00000E+000	Step Size (mV)
TIMERRES	QUANT	3.33340E-005	&Timer Resolution
FREQUENCY	QUANT	1.00000E+001	Frequency (Hz)
PULSESIZE	QUANT	2.50000E+001	Pulse Size E (mV)
PULSEON	QUANT	1.00000E-001	Pulse &Time (s)
NOISEREJECT	TOGGLE	F	Noise Rejection
AREA	QUANT	2.00000E-002	Sample Area (cm^2)
IMODE	SELECTOR	1	I/E Range Mode
IRANGE	QUANT	1.00000E-003	Max Current (mA)
EQDELAY	IQUANT	10	Equil. Time (s)
IRCOMP	SELECTOR	0	IRComp
PFCOR	QUANT	5.00000E+001	PF Corr. (ohm)
CYCLES	IQUANT	101	C&ycles (#)
ELECTRODETYPE	SELECTOR	0	Electrode Type
STRIPPING	TOGGLE	F	Used for Stripping
POLARITY	TOGGLE	F	Signal Polarity
LINEFREQ	IQUANT	60	Line Frequency (Hz)
INTPERIOD	QUANT	3.3334E-005	Integration Period (s)
SEQUENCER	TOGGLE	TRUE	Run as Sequence
PSTATMODEL	IQUANT	4	Pstat Model
PSTATSECTION	LABEL	REF600-24079	Pstat Section
PSTATSERIALNO	LABEL	24079	Pstat Serial Number
CTRLMODE	IQUANT	1	Control Mode
ELECTROMETER	IQUANT	0	RE=0 or CS=1
IESTAB	IQUANT	2	I/E Stability
CASPEED	IQUANT	6	Control Amp Speed
CONVENTION	IQUANT	1	Current Convention
ICHRANGE	IQUANT	2	Ich Range
ICHRANGEMODE	TOGGLE	F	Ich Auto Range
ICHOFFSETENABLE	TOGGLE	F	Ich Offset Enable
ICHOFFSET	QUANT	0	Ich Offset (V)
ICHFILTER	IQUANT	2	Ich Filter
VCHRANGE	IQUANT	2	Vch Range
VCHRANGEMODE	TOGGLE	F	Vch Auto Range
VCHOFFSETENABLE	TOGGLE	F	Vch Offset Enable
VCHOFFSET	QUANT	0	Vch Offset (V)
VCHFILTER	IQUANT	2	Vch Filter
ACHRANGE	IQUANT	2	Ach Range
ACHOFFSETENABLE	TOGGLE	F	Ach Offset Enable
ACHOFFSET	QUANT	0	Ach Offset (V)
ACHFILTER	IQUANT	1	Ach Filter
IERANGELOWERLIMIT	IQUANT	1	I/E Range Lower Limit
IERANGEMODE	TOGGLE	F	I/E AutoRange
IERANGE	IQUANT	6	I/E Range
POSFEEDENABLE	TOGGLE	F	Positive Feedback IR Comp
POSFEEDRESISTANCE	QUANT	0	Positive Feedback Resistance (ohm)
ACHSELECT	IQUANT	0	Ach Select
SENSECABLEID	IQUANT	13	Sense Cable ID
PWRCABLEID	IQUANT	13	Power Cable ID
DCCALDATE	LABEL	6/30/2020	DC Calibration Date
ACCALDATE	LABEL	6/30/2020	AC Calibration Date
THERMOSELECT	IQUANT	1	Thermo Select
FRAMEWORKVERSION	LABEL	7.8.2	Framework Version
INSTRUMENTVERSION	LABEL	4.40	Instrument Version
CURVE	TABLE	101
	Pt	T	Vfwd	Vrev	Vstep	Ifwd	Irev	Idif	Sig	Ach	IERange	Over	Temp
	#	s	V	V	V	A	A	A	V	V	#	bits	deg C
	0	0.1	-3.24879E-001	-3.74880E-001	-3.49880E-001	-8.33387E-008	-1.64179E-007	8.08406E-008	-3.75000E-001	4.34539E-004	6	..........a	-327.68
	2	0.3	-3.20868E-001	-3.70780E-001	-3.45824E-001	-6.57925E-008	-1.53240E-007	8.74471E-008	-3.71000E-001	4.37706E-004	6	..........a	-327.68
	4	0.5	-3.16790E-001	-3.66904E-001	-3.41847E-001	-6.12879E-008	-1.47143E-007	8.58556E-008	-3.67000E-001	4.34706E-004	6	..........a	-327.68
	6	0.7	-3.12877E-001	-3.62802E-001	-3.37840E-001	-5.74204E-008	-1.41266E-007	8.38453E-008	-3.63000E-001	4.15706E-004	6	..........a	-327.68
	8	0.9	-3.08846E-001	-3.58880E-001	-3.33863E-001	-5.39413E-008	-1.35647E-007	8.17054E-008	-3.59000E-001	4.34039E-004	6	..........a	-327.68
	10	1.1	-3.04885E-001	-3.54820E-001	-3.29852E-001	-5.07322E-008	-1.30455E-007	7.97225E-008	-3.55000E-001	4.24539E-004	6	..........a	-327.68
	12	1.3	-3.00895E-001	-3.50885E-001	-3.25890E-001	-4.74255E-008	-1.25412E-007	7.79863E-008	-3.51000E-001	4.24206E-004	6	..........a	-327.68
	14	1.5	-2.96889E-001	-3.46875E-001	-3.21882E-001	-4.43351E-008	-1.20882E-007	7.65471E-008	-3.47000E-001	4.33706E-004	6	..........a	-327.68
	16	1.7	-2.92753E-001	-3.42872E-001	-3.17813E-001	-4.12033E-008	-1.16195E-007	7.49919E-008	-3.43000E-001	4.34206E-004	6	..........a	-327.68
	18	1.9	-2.88921E-001	-3.38823E-001	-3.13872E-001	-3.82746E-008	-1.11915E-007	7.36407E-008	-3.39000E-001	4.42706E-004	6	..........a	-327.68
	20	2.1	-2.84804E-001	-3.34871E-001	-3.09837E-001	-3.53786E-008	-1.07602E-007	7.22235E-008	-3.35000E-001	4.30373E-004	6	..........a	-327.68
	22	2.3	-2.80903E-001	-3.30810E-001	-3.05856E-001	-3.25619E-008	-1.03645E-007	7.10834E-008	-3.31000E-001	4.38039E-004	6	..........a	-327.68
	24	2.5	-2.76870E-001	-3.26881E-001	-3.01876E-001	-2.98242E-008	-9.99021E-008	7.00779E-008	-3.27000E-001	4.22873E-004	6	..........a	-327.68
	26	2.7	-2.72884E-001	-3.22860E-001	-2.97872E-001	-2.70515E-008	-9.61897E-008	6.91381E-008	-3.23000E-001	4.16373E-004	6	..........a	-327.68
	28	2.9	-2.68877E-001	-3.18886E-001	-2.93882E-001	-2.44209E-008	-9.27332E-008	6.83124E-008	-3.19000E-001	4.25373E-004	6	..........a	-327.68
	30	3.1	-2.64908E-001	-3.14863E-001	-2.89885E-001	-2.20182E-008	-8.96175E-008	6.75993E-008	-3.15000E-001	4.14373E-004	6	..........a	-327.68
	32	3.3	-2.60809E-001	-3.10893E-001	-2.85851E-001	-1.94919E-008	-8.62974E-008	6.68055E-008	-3.11000E-001	4.34706E-004	6	..........a	-327.68
	34	3.5	-2.56864E-001	-3.06828E-001	-2.81846E-001	-1.72546E-008	-8.32557E-008	6.60011E-008	-3.07000E-001	4.30706E-004	6	..........a	-327.68
	36	3.7	-2.52856E-001	-3.02908E-001	-2.77882E-001	-1.50347E-008	-8.06473E-008	6.56127E-008	-3.03000E-001	4.25873E-004	6	..........a	-327.68
	38	3.9	-2.48907E-001	-2.98858E-001	-2.73882E-001	-1.30287E-008	-7.78900E-008	6.48613E-008	-2.99000E-001	4.27706E-004	6	..........a	-327.68
	40	4.1	-2.44887E-001	-2.94881E-001	-2.69884E-001	-1.09761E-008	-7.52847E-008	6.43085E-008	-2.95000E-001	4.31873E-004	6	..........a	-327.68
	42	4.3	-2.40915E-001	-2.90796E-001	-2.65856E-001	-9.45162E-009	-7.29697E-008	6.35181E-008	-2.91000E-001	4.27539E-004	6	..........a	-327.68
	44	4.5	-2.36840E-001	-2.86875E-001	-2.61858E-001	-7.78307E-009	-7.04050E-008	6.26220E-008	-2.87000E-001	4.37039E-004	6	..........a	-327.68
	46	4.7	-2.32874E-001	-2.82817E-001	-2.57845E-001	-5.97984E-009	-6.81051E-008	6.21252E-008	-2.83000E-001	4.27373E-004	6	..........a	-327.68
	48	4.9	-2.28843E-001	-2.78883E-001	-2.53863E-001	-4.72602E-009	-6.57978E-008	6.10718E-008	-2.79000E-001	4.25206E-004	6	..........a	-327.68
	50	5.1	-2.24880E-001	-2.74845E-001	-2.49862E-001	-3.45086E-009	-6.33951E-008	5.99443E-008	-2.75000E-001	4.39039E-004	6	..........a	-327.68
	52	5.3	-2.20872E-001	-2.70864E-001	-2.45868E-001	-2.04334E-009	-6.12242E-008	5.91809E-008	-2.71000E-001	4.28539E-004	6	..........a	-327.68
	54	5.5	-2.16939E-001	-2.66790E-001	-2.41864E-001	-1.12023E-009	-5.91323E-008	5.80120E-008	-2.67000E-001	4.29206E-004	6	..........a	-327.68
	56	5.7	-2.12873E-001	-2.62866E-001	-2.37869E-001	1.50269E-010	-5.67280E-008	5.68782E-008	-2.63000E-001	4.38873E-004	6	..........a	-327.68
	58	5.9	-2.08866E-001	-2.58814E-001	-2.33840E-001	1.16040E-009	-5.45980E-008	5.57584E-008	-2.59000E-001	4.13873E-004	6	..........a	-327.68
	60	6.1	-2.04854E-001	-2.54885E-001	-2.29870E-001	2.08018E-009	-5.25651E-008	5.46453E-008	-2.55000E-001	4.32539E-004	6	..........a	-327.68
	62	6.3	-2.00885E-001	-2.50845E-001	-2.25865E-001	3.18099E-009	-5.08896E-008	5.40706E-008	-2.51000E-001	4.10206E-004	6	..........a	-327.68
	64	6.5	-1.96874E-001	-2.46878E-001	-2.21876E-001	3.94142E-009	-4.88963E-008	5.28377E-008	-2.47000E-001	4.13873E-004	6	..........a	-327.68
	66	6.7	-1.92908E-001	-2.42774E-001	-2.17841E-001	4.78753E-009	-4.73164E-008	5.21040E-008	-2.43000E-001	4.22706E-004	6	..........a	-327.68
	68	6.9	-1.88792E-001	-2.38898E-001	-2.13845E-001	5.65930E-009	-4.56559E-008	5.13152E-008	-2.39000E-001	3.98539E-004	6	..........a	-327.68
	70	7.1	-1.84906E-001	-2.34803E-001	-2.09855E-001	6.54275E-009	-4.39437E-008	5.04864E-008	-2.35000E-001	3.99706E-004	6	..........a	-327.68
	72	7.3	-1.80800E-001	-2.30862E-001	-2.05831E-001	7.20917E-009	-4.23105E-008	4.95196E-008	-2.31000E-001	4.01039E-004	6	..........a	-327.68
	74	7.5	-1.76857E-001	-2.26816E-001	-2.01836E-001	8.07028E-009	-4.09626E-008	4.90329E-008	-2.27000E-001	3.92873E-004	6	..........a	-327.68
	76	7.7	-1.72854E-001	-2.22882E-001	-1.97868E-001	8.89238E-009	-3.96525E-008	4.85448E-008	-2.23000E-001	4.04873E-004	6	..........a	-327.68
	78	7.9	-1.68896E-001	-2.18867E-001	-1.93882E-001	9.47512E-009	-3.81059E-008	4.75811E-008	-2.19000E-001	4.08039E-004	6	..........a	-327.68
	80	8.1	-1.64727E-001	-2.14901E-001	-1.89814E-001	1.02122E-008	-3.69571E-008	4.71693E-008	-2.15000E-001	3.91039E-004	6	..........a	-327.68
	82	8.3	-1.60919E-001	-2.10846E-001	-1.85882E-001	1.09640E-008	-3.55766E-008	4.65406E-008	-2.11000E-001	3.89206E-004	6	..........a	-327.68
	84	8.5	-1.56802E-001	-2.06896E-001	-1.81849E-001	1.18238E-008	-3.45415E-008	4.63652E-008	-2.07000E-001	4.00206E-004	6	..........a	-327.68
	86	8.7	-1.52881E-001	-2.02822E-001	-1.77851E-001	1.25852E-008	-3.34447E-008	4.60299E-008	-2.03000E-001	4.06039E-004	6	..........a	-327.68
	88	8.9	-1.48852E-001	-1.98908E-001	-1.73880E-001	1.29322E-008	-3.23402E-008	4.52724E-008	-1.99000E-001	3.94873E-004	6	..........a	-327.68
	90	9.1	-1.44885E-001	-1.94850E-001	-1.69868E-001	1.37187E-008	-3.15178E-008	4.52364E-008	-1.95000E-001	3.99539E-004	6	..........a	-327.68
	92	9.3	-1.40889E-001	-1.90901E-001	-1.65895E-001	1.41410E-008	-3.05730E-008	4.47140E-008	-1.91000E-001	3.80206E-004	6	..........a	-327.68
	94	9.5	-1.36897E-001	-1.86826E-001	-1.61862E-001	1.49258E-008	-3.00926E-008	4.50184E-008	-1.87000E-001	4.04373E-004	6	..........a	-327.68
	96	9.7	-1.32765E-001	-1.82873E-001	-1.57819E-001	1.54409E-008	-2.91501E-008	4.45910E-008	-1.83000E-001	3.86706E-004	6	..........a	-327.68
	98	9.9	-1.28842E-001	-1.78806E-001	-1.53824E-001	1.59486E-008	-2.83544E-008	4.43030E-008	-1.79000E-001	4.07039E-004	6	..........a	-327.68
	100	10.1	-1.24817E-001	-1.74880E-001	-1.49849E-001	1.65794E-008	-2.76766E-008	4.42560E-008	-1.75000E-001	4.03039E-004	6	..........a	-327.68

File: SWV_10Hz STD3 10  fgml 081020_#4.DTA
EXPLAIN
TAG	SQUARE_WAVE
TITLE	LABEL	Square Wave Voltammetry	Test Identifier
DATE	LABEL	8/10/2020	Date
TIME	LABEL	17:54:31	Time
NOTES	NOTES	1	Notes...
	 STD3, 10  fg/mL 08102
PSTAT	PSTAT	REF600-24079	Potentiostat
VINIT	QUANT	-3.50000E-001	Initial E (V)
VFINAL	QUANT	-1.50000E-001	Final E (V)
STEPSIZE	QUANT	2.00000E+000	Step Size (mV)
TIMERRES	QUANT	3.33340E-005	&Timer Resolution
FREQUENCY	QUANT	1.00000E+001	Frequency (Hz)
PULSESIZE	QUANT	2.50000E+001	Pulse Size E (mV)
PULSEON	QUANT	1.00000E-001	Pulse &Time (s)
NOISEREJECT	TOGGLE	F	Noise Rejection
AREA	QUANT	2.00000E-002	Sample Area (cm^2)
IMODE	SELECTOR	1	I/E Range Mode
IRANGE	QUANT	1.00000E-003	Max Current (mA)
EQDELAY	IQUANT	10	Equil. Time (s)
IRCOMP	SELECTOR	0	IRComp
PFCOR	QUANT	5.00000E+001	PF Corr. (ohm)
CYCLES	IQUANT	101	C&ycles (#)
ELECTRODETYPE	SELECTOR	0	Electrode Type
STRIPPING	TOGGLE	F	Used for Stripping
POLARITY	TOGGLE	F	Signal Polarity
LINEFREQ	IQUANT	60	Line Frequency (Hz)
INTPERIOD	QUANT	3.3334E-005	Integration Period (s)
SEQUENCER	TOGGLE	TRUE	Run as Sequence
PSTATMODEL	IQUANT	4	Pstat Model
PSTATSECTION	LABEL	REF600-24079	Pstat Section
PSTATSERIALNO	LABEL	24079	Pstat Serial Number
CTRLMODE	IQUANT	1	Control Mode
ELECTROMETER	IQUANT	0	RE=0 or CS=1
IESTAB	IQUANT	2	I/E Stability
CASPEED	IQUANT	6	Control Amp Speed
CONVENTION	IQUANT	1	Current Convention
ICHRANGE	IQUANT	2	Ich Range
ICHRANGEMODE	TOGGLE	F	Ich Auto Range
ICHOFFSETENABLE	TOGGLE	F	Ich Offset Enable
ICHOFFSET	QUANT	0	Ich Offset (V)
ICHFILTER	IQUANT	2	Ich Filter
VCHRANGE	IQUANT	2	Vch Range
VCHRANGEMODE	TOGGLE	F	Vch Auto Range
VCHOFFSETENABLE	TOGGLE	F	Vch Offset Enable
VCHOFFSET	QUANT	0	Vch Offset (V)
VCHFILTER	IQUANT	2	Vch Filter
ACHRANGE	IQUANT	2	Ach Range
ACHOFFSETENABLE	TOGGLE	F	Ach Offset Enable
ACHOFFSET	QUANT	0	Ach Offset (V)
ACHFILTER	IQUANT	1	Ach Filter
IERANGELOWERLIMIT	IQUANT	1	I/E Range Lower Limit
IERANGEMODE	TOGGLE	F	I/E AutoRange
IERANGE	IQUANT	6	I/E Range
POSFEEDENABLE	TOGGLE	F	Positive Feedback IR Comp
POSFEEDRESISTANCE	QUANT	0	Positive Feedback Resistance (ohm)
ACHSELECT	IQUANT	0	Ach Select
SENSECABLEID	IQUANT	13	Sense Cable ID
PWRCABLEID	IQUANT	13	Power Cable ID
DCCALDATE	LABEL	6/30/2020	DC Calibration Date
ACCALDATE	LABEL	6/30/2020	AC Calibration Date
THERMOSELECT	IQUANT	1	Thermo Select
FRAMEWORKVERSION	LABEL	7.8.2	Framework Version
INSTRUMENTVERSION	LABEL	4.40	Instrument Version
CURVE	TABLE	101
	Pt	T	Vfwd	Vrev	Vstep	Ifwd	Irev	Idif	Sig	Ach	IERange	Over	Temp
	#	s	V	V	V	A	A	A	V	V	#	bits	deg C
	0	0.1	-3.24898E-001	-3.74891E-001	-3.49894E-001	-8.14434E-008	-1.59882E-007	7.84390E-008	-3.75000E-001	3.95039E-004	6	..........a	-327.68
	2	0.3	-3.20875E-001	-3.70781E-001	-3.45828E-001	-6.39142E-008	-1.49414E-007	8.55002E-008	-3.71000E-001	4.04206E-004	6	..........a	-327.68
	4	0.5	-3.16819E-001	-3.66932E-001	-3.41876E-001	-5.94667E-008	-1.43167E-007	8.37000E-008	-3.67000E-001	4.04706E-004	6	..........a	-327.68
	6	0.7	-3.12899E-001	-3.62829E-001	-3.37864E-001	-5.58562E-008	-1.37900E-007	8.20438E-008	-3.63000E-001	4.00706E-004	6	..........a	-327.68
	8	0.9	-3.08883E-001	-3.58899E-001	-3.33891E-001	-5.25721E-008	-1.32660E-007	8.00875E-008	-3.59000E-001	4.12039E-004	6	..........a	-327.68
	10	1.1	-3.04903E-001	-3.54833E-001	-3.29868E-001	-4.93050E-008	-1.27609E-007	7.83040E-008	-3.55000E-001	3.96039E-004	6	..........a	-327.68
	12	1.3	-3.00914E-001	-3.50896E-001	-3.25905E-001	-4.64137E-008	-1.22968E-007	7.65544E-008	-3.51000E-001	4.18873E-004	6	..........a	-327.68
	14	1.5	-2.96904E-001	-3.46884E-001	-3.21894E-001	-4.32953E-008	-1.18375E-007	7.50802E-008	-3.47000E-001	4.02206E-004	6	..........a	-327.68
	16	1.7	-2.92772E-001	-3.42888E-001	-3.17830E-001	-4.01679E-008	-1.13783E-007	7.36154E-008	-3.43000E-001	4.02706E-004	6	..........a	-327.68
	18	1.9	-2.88932E-001	-3.38833E-001	-3.13883E-001	-3.74769E-008	-1.09859E-007	7.23819E-008	-3.39000E-001	3.99206E-004	6	..........a	-327.68
	20	2.1	-2.84820E-001	-3.34879E-001	-3.09850E-001	-3.46738E-008	-1.05473E-007	7.07997E-008	-3.35000E-001	4.02206E-004	6	..........a	-327.68
	22	2.3	-2.80914E-001	-3.30819E-001	-3.05866E-001	-3.18061E-008	-1.01923E-007	7.01169E-008	-3.31000E-001	3.89373E-004	6	..........a	-327.68
	24	2.5	-2.76882E-001	-3.26898E-001	-3.01890E-001	-2.93752E-008	-9.81599E-008	6.87847E-008	-3.27000E-001	3.91706E-004	6	..........a	-327.68
	26	2.7	-2.72902E-001	-3.22866E-001	-2.97884E-001	-2.65685E-008	-9.46288E-008	6.80603E-008	-3.23000E-001	3.95373E-004	6	..........a	-327.68
	28	2.9	-2.68894E-001	-3.18905E-001	-2.93899E-001	-2.41115E-008	-9.13380E-008	6.72265E-008	-3.19000E-001	3.88873E-004	6	..........a	-327.68
	30	3.1	-2.64917E-001	-3.14883E-001	-2.89900E-001	-2.14331E-008	-8.83320E-008	6.68988E-008	-3.15000E-001	4.03206E-004	6	..........a	-327.68
	32	3.3	-2.60818E-001	-3.10904E-001	-2.85861E-001	-1.92735E-008	-8.52409E-008	6.59674E-008	-3.11000E-001	4.01373E-004	6	..........a	-327.68
	34	3.5	-2.56871E-001	-3.06842E-001	-2.81857E-001	-1.71149E-008	-8.21709E-008	6.50559E-008	-3.07000E-001	4.08206E-004	6	..........a	-327.68
	36	3.7	-2.52864E-001	-3.02894E-001	-2.77879E-001	-1.48043E-008	-7.95592E-008	6.47549E-008	-3.03000E-001	4.12873E-004	6	..........a	-327.68
	38	3.9	-2.48901E-001	-2.98869E-001	-2.73885E-001	-1.30844E-008	-7.68025E-008	6.37181E-008	-2.99000E-001	4.04873E-004	6	..........a	-327.68
	40	4.1	-2.44896E-001	-2.94877E-001	-2.69886E-001	-1.12408E-008	-7.44162E-008	6.31754E-008	-2.95000E-001	4.14706E-004	6	..........a	-327.68
	42	4.3	-2.40924E-001	-2.90813E-001	-2.65869E-001	-9.33060E-009	-7.19139E-008	6.25833E-008	-2.91000E-001	4.06706E-004	6	..........a	-327.68
	44	4.5	-2.36866E-001	-2.86873E-001	-2.61869E-001	-7.66106E-009	-6.95389E-008	6.18779E-008	-2.87000E-001	4.11706E-004	6	..........a	-327.68
	46	4.7	-2.32867E-001	-2.82814E-001	-2.57841E-001	-6.21887E-009	-6.72786E-008	6.10598E-008	-2.83000E-001	4.06373E-004	6	..........a	-327.68
	48	4.9	-2.28816E-001	-2.78888E-001	-2.53852E-001	-4.92504E-009	-6.49560E-008	6.00310E-008	-2.79000E-001	4.19373E-004	6	..........a	-327.68
	50	5.1	-2.24889E-001	-2.74854E-001	-2.49872E-001	-3.44252E-009	-6.27551E-008	5.93125E-008	-2.75000E-001	4.06206E-004	6	..........a	-327.68
	52	5.3	-2.20883E-001	-2.70871E-001	-2.45877E-001	-2.07668E-009	-6.05515E-008	5.84748E-008	-2.71000E-001	4.02039E-004	6	..........a	-327.68
	54	5.5	-2.16927E-001	-2.66792E-001	-2.41859E-001	-9.79541E-010	-5.83748E-008	5.73953E-008	-2.67000E-001	4.03206E-004	6	..........a	-327.68
	56	5.7	-2.12877E-001	-2.62874E-001	-2.37875E-001	4.03635E-010	-5.63389E-008	5.67426E-008	-2.63000E-001	4.05373E-004	6	..........a	-327.68
	58	5.9	-2.08877E-001	-2.58812E-001	-2.33845E-001	1.22674E-009	-5.41893E-008	5.54161E-008	-2.59000E-001	4.00373E-004	6	..........a	-327.68
	60	6.1	-2.04847E-001	-2.54889E-001	-2.29868E-001	2.21487E-009	-5.20894E-008	5.43042E-008	-2.55000E-001	3.95706E-004	6	..........a	-327.68
	62	6.3	-2.00885E-001	-2.50852E-001	-2.25869E-001	3.03697E-009	-5.04095E-008	5.34465E-008	-2.51000E-001	3.84873E-004	6	..........a	-327.68
	64	6.5	-1.96886E-001	-2.46879E-001	-2.21882E-001	3.81374E-009	-4.86956E-008	5.25093E-008	-2.47000E-001	3.77206E-004	6	..........a	-327.68
	66	6.7	-1.92903E-001	-2.42784E-001	-2.17844E-001	4.76586E-009	-4.68730E-008	5.16389E-008	-2.43000E-001	3.87706E-004	6	..........a	-327.68
	68	6.9	-1.88799E-001	-2.38892E-001	-2.13846E-001	5.67264E-009	-4.51422E-008	5.08148E-008	-2.39000E-001	3.85039E-004	6	..........a	-327.68
	70	7.1	-1.84908E-001	-2.34819E-001	-2.09864E-001	6.50574E-009	-4.36030E-008	5.01087E-008	-2.35000E-001	3.91706E-004	6	..........a	-327.68
	72	7.3	-1.80805E-001	-2.30871E-001	-2.05838E-001	7.24951E-009	-4.21201E-008	4.93696E-008	-2.31000E-001	3.76873E-004	6	..........a	-327.68
	74	7.5	-1.76852E-001	-2.26826E-001	-2.01839E-001	7.94559E-009	-4.08996E-008	4.88452E-008	-2.27000E-001	3.86706E-004	6	..........a	-327.68
	76	7.7	-1.72856E-001	-2.22882E-001	-1.97869E-001	8.75836E-009	-3.92354E-008	4.79938E-008	-2.23000E-001	3.78373E-004	6	..........a	-327.68
	78	7.9	-1.68889E-001	-2.18865E-001	-1.93877E-001	9.69515E-009	-3.80739E-008	4.77691E-008	-2.19000E-001	3.89373E-004	6	..........a	-327.68
	80	8.1	-1.64737E-001	-2.14911E-001	-1.89824E-001	1.03332E-008	-3.70465E-008	4.73797E-008	-2.15000E-001	3.75873E-004	6	..........a	-327.68
	82	8.3	-1.60919E-001	-2.10855E-001	-1.85887E-001	1.08633E-008	-3.54509E-008	4.63142E-008	-2.11000E-001	3.75539E-004	6	..........a	-327.68
	84	8.5	-1.56807E-001	-2.06897E-001	-1.81852E-001	1.13847E-008	-3.45091E-008	4.58938E-008	-2.07000E-001	3.81373E-004	6	..........a	-327.68
	86	8.7	-1.52899E-001	-2.02830E-001	-1.77864E-001	1.22798E-008	-3.37350E-008	4.60149E-008	-2.03000E-001	3.89039E-004	6	..........a	-327.68
	88	8.9	-1.48856E-001	-1.98907E-001	-1.73882E-001	1.30446E-008	-3.25792E-008	4.56238E-008	-1.99000E-001	3.87039E-004	6	..........a	-327.68
	90	9.1	-1.44881E-001	-1.94862E-001	-1.69871E-001	1.34320E-008	-3.14411E-008	4.48730E-008	-1.95000E-001	3.62373E-004	6	..........a	-327.68
	92	9.3	-1.40879E-001	-1.90913E-001	-1.65896E-001	1.42291E-008	-3.07107E-008	4.49397E-008	-1.91000E-001	3.68206E-004	6	..........a	-327.68
	94	9.5	-1.36897E-001	-1.86833E-001	-1.61865E-001	1.46871E-008	-2.99186E-008	4.46057E-008	-1.87000E-001	3.85873E-004	6	..........a	-327.68
	96	9.7	-1.32765E-001	-1.82881E-001	-1.57823E-001	1.55682E-008	-2.90701E-008	4.46383E-008	-1.83000E-001	3.77373E-004	6	..........a	-327.68
	98	9.9	-1.28854E-001	-1.78823E-001	-1.53839E-001	1.58596E-008	-2.83524E-008	4.42120E-008	-1.79000E-001	3.86039E-004	6	..........a	-327.68
	100	10.1	-1.24826E-001	-1.74887E-001	-1.49857E-001	1.67714E-008	-2.76876E-008	4.44590E-008	-1.75000E-001	3.94373E-004	6	..........a	-327.68