Folder: EchemAnalysis_AMA/C-COM2 (part 3)

File: SWV_10Hz STD2 10  fgml 081020_#8.DTA
EXPLAIN
TAG	SQUARE_WAVE
TITLE	LABEL	Square Wave Voltammetry	Test Identifier
DATE	LABEL	8/10/2020	Date
TIME	LABEL	18:11:22	Time
NOTES	NOTES	1	Notes...
	 STD2, 10  fg/mL 08102
PSTAT	PSTAT	REF600-24079	Potentiostat
VINIT	QUANT	-3.50000E-001	Initial E (V)
VFINAL	QUANT	-1.50000E-001	Final E (V)
STEPSIZE	QUANT	2.00000E+000	Step Size (mV)
TIMERRES	QUANT	3.33340E-005	&Timer Resolution
FREQUENCY	QUANT	1.00000E+001	Frequency (Hz)
PULSESIZE	QUANT	2.50000E+001	Pulse Size E (mV)
PULSEON	QUANT	1.00000E-001	Pulse &Time (s)
NOISEREJECT	TOGGLE	F	Noise Rejection
AREA	QUANT	2.00000E-002	Sample Area (cm^2)
IMODE	SELECTOR	1	I/E Range Mode
IRANGE	QUANT	1.00000E-003	Max Current (mA)
EQDELAY	IQUANT	10	Equil. Time (s)
IRCOMP	SELECTOR	0	IRComp
PFCOR	QUANT	5.00000E+001	PF Corr. (ohm)
CYCLES	IQUANT	101	C&ycles (#)
ELECTRODETYPE	SELECTOR	0	Electrode Type
STRIPPING	TOGGLE	F	Used for Stripping
POLARITY	TOGGLE	F	Signal Polarity
LINEFREQ	IQUANT	60	Line Frequency (Hz)
INTPERIOD	QUANT	3.3334E-005	Integration Period (s)
SEQUENCER	TOGGLE	TRUE	Run as Sequence
PSTATMODEL	IQUANT	4	Pstat Model
PSTATSECTION	LABEL	REF600-24079	Pstat Section
PSTATSERIALNO	LABEL	24079	Pstat Serial Number
CTRLMODE	IQUANT	1	Control Mode
ELECTROMETER	IQUANT	0	RE=0 or CS=1
IESTAB	IQUANT	2	I/E Stability
CASPEED	IQUANT	6	Control Amp Speed
CONVENTION	IQUANT	1	Current Convention
ICHRANGE	IQUANT	2	Ich Range
ICHRANGEMODE	TOGGLE	F	Ich Auto Range
ICHOFFSETENABLE	TOGGLE	F	Ich Offset Enable
ICHOFFSET	QUANT	0	Ich Offset (V)
ICHFILTER	IQUANT	2	Ich Filter
VCHRANGE	IQUANT	2	Vch Range
VCHRANGEMODE	TOGGLE	F	Vch Auto Range
VCHOFFSETENABLE	TOGGLE	F	Vch Offset Enable
VCHOFFSET	QUANT	0	Vch Offset (V)
VCHFILTER	IQUANT	2	Vch Filter
ACHRANGE	IQUANT	2	Ach Range
ACHOFFSETENABLE	TOGGLE	F	Ach Offset Enable
ACHOFFSET	QUANT	0	Ach Offset (V)
ACHFILTER	IQUANT	1	Ach Filter
IERANGELOWERLIMIT	IQUANT	1	I/E Range Lower Limit
IERANGEMODE	TOGGLE	F	I/E AutoRange
IERANGE	IQUANT	6	I/E Range
POSFEEDENABLE	TOGGLE	F	Positive Feedback IR Comp
POSFEEDRESISTANCE	QUANT	0	Positive Feedback Resistance (ohm)
ACHSELECT	IQUANT	0	Ach Select
SENSECABLEID	IQUANT	13	Sense Cable ID
PWRCABLEID	IQUANT	13	Power Cable ID
DCCALDATE	LABEL	6/30/2020	DC Calibration Date
ACCALDATE	LABEL	6/30/2020	AC Calibration Date
THERMOSELECT	IQUANT	1	Thermo Select
FRAMEWORKVERSION	LABEL	7.8.2	Framework Version
INSTRUMENTVERSION	LABEL	4.40	Instrument Version
CURVE	TABLE	101
	Pt	T	Vfwd	Vrev	Vstep	Ifwd	Irev	Idif	Sig	Ach	IERange	Over	Temp
	#	s	V	V	V	A	A	A	V	V	#	bits	deg C
	0	0.1	-3.24895E-001	-3.74894E-001	-3.49895E-001	-8.55943E-008	-1.65306E-007	7.97115E-008	-3.75000E-001	3.73039E-004	6	..........a	-327.68
	2	0.3	-3.20877E-001	-3.70788E-001	-3.45832E-001	-6.72696E-008	-1.54466E-007	8.71961E-008	-3.71000E-001	3.71539E-004	6	..........a	-327.68
	4	0.5	-3.16801E-001	-3.66926E-001	-3.41863E-001	-6.26381E-008	-1.48398E-007	8.57602E-008	-3.67000E-001	3.68206E-004	6	..........a	-327.68
	6	0.7	-3.12893E-001	-3.62818E-001	-3.37855E-001	-5.89586E-008	-1.42919E-007	8.39607E-008	-3.63000E-001	3.64206E-004	6	..........a	-327.68
	8	0.9	-3.08862E-001	-3.58892E-001	-3.33877E-001	-5.54751E-008	-1.37720E-007	8.22445E-008	-3.59000E-001	3.76539E-004	6	..........a	-327.68
	10	1.1	-3.04908E-001	-3.54847E-001	-3.29877E-001	-5.22047E-008	-1.33075E-007	8.08703E-008	-3.55000E-001	3.72539E-004	6	..........a	-327.68
	12	1.3	-3.00905E-001	-3.50888E-001	-3.25897E-001	-4.88240E-008	-1.28207E-007	7.93831E-008	-3.51000E-001	3.60873E-004	6	..........a	-327.68
	14	1.5	-2.96901E-001	-3.46879E-001	-3.21890E-001	-4.56409E-008	-1.23726E-007	7.80849E-008	-3.47000E-001	3.72873E-004	6	..........a	-327.68
	16	1.7	-2.92749E-001	-3.42904E-001	-3.17827E-001	-4.27065E-008	-1.19454E-007	7.67471E-008	-3.43000E-001	3.70873E-004	6	..........a	-327.68
	18	1.9	-2.88927E-001	-3.38841E-001	-3.13884E-001	-3.96935E-008	-1.15366E-007	7.56730E-008	-3.39000E-001	3.55206E-004	6	..........a	-327.68
	20	2.1	-2.84838E-001	-3.34884E-001	-3.09861E-001	-3.69114E-008	-1.11275E-007	7.43631E-008	-3.35000E-001	3.56373E-004	6	..........a	-327.68
	22	2.3	-2.80910E-001	-3.30827E-001	-3.05869E-001	-3.40681E-008	-1.07386E-007	7.33177E-008	-3.31000E-001	3.64206E-004	6	..........a	-327.68
	24	2.5	-2.76890E-001	-3.26894E-001	-3.01892E-001	-3.10644E-008	-1.03774E-007	7.27093E-008	-3.27000E-001	3.64206E-004	6	..........a	-327.68
	26	2.7	-2.72894E-001	-3.22873E-001	-2.97884E-001	-2.84397E-008	-1.00341E-007	7.19011E-008	-3.23000E-001	3.64206E-004	6	..........a	-327.68
	28	2.9	-2.68893E-001	-3.18889E-001	-2.93891E-001	-2.55503E-008	-9.70224E-008	7.14721E-008	-3.19000E-001	3.61206E-004	6	..........a	-327.68
	30	3.1	-2.64932E-001	-3.14895E-001	-2.89913E-001	-2.30567E-008	-9.38627E-008	7.08060E-008	-3.15000E-001	3.71039E-004	6	..........a	-327.68
	32	3.3	-2.60841E-001	-3.10895E-001	-2.85868E-001	-2.05107E-008	-9.10243E-008	7.05136E-008	-3.11000E-001	3.54373E-004	6	..........a	-327.68
	34	3.5	-2.56873E-001	-3.06852E-001	-2.81863E-001	-1.80467E-008	-8.79819E-008	6.99352E-008	-3.07000E-001	3.72539E-004	6	..........a	-327.68
	36	3.7	-2.52849E-001	-3.02914E-001	-2.77882E-001	-1.56974E-008	-8.51699E-008	6.94725E-008	-3.03000E-001	3.52039E-004	6	..........a	-327.68
	38	3.9	-2.48902E-001	-2.98864E-001	-2.73883E-001	-1.35358E-008	-8.25142E-008	6.89784E-008	-2.99000E-001	3.61873E-004	6	..........a	-327.68
	40	4.1	-2.44892E-001	-2.94876E-001	-2.69884E-001	-1.15002E-008	-8.01396E-008	6.86394E-008	-2.95000E-001	3.63539E-004	6	..........a	-327.68
	42	4.3	-2.40943E-001	-2.90822E-001	-2.65882E-001	-9.66598E-009	-7.74253E-008	6.77593E-008	-2.91000E-001	3.84539E-004	6	..........a	-327.68
	44	4.5	-2.36858E-001	-2.86892E-001	-2.61875E-001	-7.96810E-009	-7.53467E-008	6.73786E-008	-2.87000E-001	3.70039E-004	6	..........a	-327.68
	46	4.7	-2.32871E-001	-2.82831E-001	-2.57851E-001	-6.46190E-009	-7.27800E-008	6.63181E-008	-2.83000E-001	3.80706E-004	6	..........a	-327.68
	48	4.9	-2.28848E-001	-2.78879E-001	-2.53864E-001	-4.71402E-009	-7.05531E-008	6.58390E-008	-2.79000E-001	3.75206E-004	6	..........a	-327.68
	50	5.1	-2.24882E-001	-2.74853E-001	-2.49868E-001	-3.35418E-009	-6.82028E-008	6.48486E-008	-2.75000E-001	3.58206E-004	6	..........a	-327.68
	52	5.3	-2.20873E-001	-2.70880E-001	-2.45877E-001	-1.97433E-009	-6.60318E-008	6.40575E-008	-2.71000E-001	3.84373E-004	6	..........a	-327.68
	54	5.5	-2.16938E-001	-2.66804E-001	-2.41871E-001	-7.38844E-010	-6.37565E-008	6.30177E-008	-2.67000E-001	3.61539E-004	6	..........a	-327.68
	56	5.7	-2.12877E-001	-2.62873E-001	-2.37875E-001	2.92954E-010	-6.14152E-008	6.17082E-008	-2.63000E-001	3.62706E-004	6	..........a	-327.68
	58	5.9	-2.08886E-001	-2.58837E-001	-2.33862E-001	1.40943E-009	-5.92540E-008	6.06634E-008	-2.59000E-001	3.61706E-004	6	..........a	-327.68
	60	6.1	-2.04843E-001	-2.54891E-001	-2.29867E-001	2.54324E-009	-5.71824E-008	5.97256E-008	-2.55000E-001	3.71373E-004	6	..........a	-327.68
	62	6.3	-2.00887E-001	-2.50863E-001	-2.25875E-001	3.51903E-009	-5.49111E-008	5.84301E-008	-2.51000E-001	3.67539E-004	6	..........a	-327.68
	64	6.5	-1.96893E-001	-2.46870E-001	-2.21881E-001	4.50182E-009	-5.26551E-008	5.71569E-008	-2.47000E-001	3.64039E-004	6	..........a	-327.68
	66	6.7	-1.92902E-001	-2.42791E-001	-2.17846E-001	5.42961E-009	-5.10933E-008	5.65229E-008	-2.43000E-001	3.61373E-004	6	..........a	-327.68
	68	6.9	-1.88779E-001	-2.38893E-001	-2.13836E-001	6.24905E-009	-4.91483E-008	5.53974E-008	-2.39000E-001	3.52373E-004	6	..........a	-327.68
	70	7.1	-1.84912E-001	-2.34817E-001	-2.09865E-001	7.09982E-009	-4.74791E-008	5.45789E-008	-2.35000E-001	3.51206E-004	6	..........a	-327.68
	72	7.3	-1.80789E-001	-2.30880E-001	-2.05835E-001	8.04261E-009	-4.57556E-008	5.37982E-008	-2.31000E-001	3.64373E-004	6	..........a	-327.68
	74	7.5	-1.76867E-001	-2.26842E-001	-2.01855E-001	9.10608E-009	-4.41344E-008	5.32404E-008	-2.27000E-001	3.60039E-004	6	..........a	-327.68
	76	7.7	-1.72855E-001	-2.22886E-001	-1.97870E-001	1.00552E-008	-4.26255E-008	5.26807E-008	-2.23000E-001	3.60039E-004	6	..........a	-327.68
	78	7.9	-1.68891E-001	-2.18868E-001	-1.93880E-001	1.07470E-008	-4.13057E-008	5.20526E-008	-2.19000E-001	3.46039E-004	6	..........a	-327.68
	80	8.1	-1.64729E-001	-2.14906E-001	-1.89817E-001	1.13827E-008	-3.97905E-008	5.11732E-008	-2.15000E-001	3.54539E-004	6	..........a	-327.68
	82	8.3	-1.60928E-001	-2.10858E-001	-1.85893E-001	1.23542E-008	-3.84306E-008	5.07848E-008	-2.11000E-001	3.51373E-004	6	..........a	-327.68
	84	8.5	-1.56820E-001	-2.06898E-001	-1.81859E-001	1.33256E-008	-3.73268E-008	5.06524E-008	-2.07000E-001	3.33206E-004	6	..........a	-327.68
	86	8.7	-1.52886E-001	-2.02843E-001	-1.77864E-001	1.39854E-008	-3.61480E-008	5.01334E-008	-2.03000E-001	3.39373E-004	6	..........a	-327.68
	88	8.9	-1.48846E-001	-1.98913E-001	-1.73880E-001	1.48875E-008	-3.51112E-008	4.99987E-008	-1.99000E-001	3.47539E-004	6	..........a	-327.68
	90	9.1	-1.44886E-001	-1.94874E-001	-1.69880E-001	1.58259E-008	-3.40054E-008	4.98313E-008	-1.95000E-001	3.47373E-004	6	..........a	-327.68
	92	9.3	-1.40879E-001	-1.90904E-001	-1.65892E-001	1.64397E-008	-3.29283E-008	4.93679E-008	-1.91000E-001	3.38873E-004	6	..........a	-327.68
	94	9.5	-1.36915E-001	-1.86843E-001	-1.61879E-001	1.69621E-008	-3.18418E-008	4.88039E-008	-1.87000E-001	3.55873E-004	6	..........a	-327.68
	96	9.7	-1.32823E-001	-1.82882E-001	-1.57852E-001	1.77518E-008	-3.09974E-008	4.87492E-008	-1.83000E-001	3.54706E-004	6	..........a	-327.68
	98	9.9	-1.28859E-001	-1.78825E-001	-1.53842E-001	1.83476E-008	-3.03916E-008	4.87392E-008	-1.79000E-001	3.51039E-004	6	..........a	-327.68
	100	10.1	-1.24850E-001	-1.74891E-001	-1.49871E-001	1.90613E-008	-2.94535E-008	4.85148E-008	-1.75000E-001	3.58373E-004	6	..........a	-327.68

File: SWV_10Hz STD2 10  fgml 081020_#9.DTA
EXPLAIN
TAG	SQUARE_WAVE
TITLE	LABEL	Square Wave Voltammetry	Test Identifier
DATE	LABEL	8/10/2020	Date
TIME	LABEL	18:11:42	Time
NOTES	NOTES	1	Notes...
	 STD2, 10  fg/mL 08102
PSTAT	PSTAT	REF600-24079	Potentiostat
VINIT	QUANT	-3.50000E-001	Initial E (V)
VFINAL	QUANT	-1.50000E-001	Final E (V)
STEPSIZE	QUANT	2.00000E+000	Step Size (mV)
TIMERRES	QUANT	3.33340E-005	&Timer Resolution
FREQUENCY	QUANT	1.00000E+001	Frequency (Hz)
PULSESIZE	QUANT	2.50000E+001	Pulse Size E (mV)
PULSEON	QUANT	1.00000E-001	Pulse &Time (s)
NOISEREJECT	TOGGLE	F	Noise Rejection
AREA	QUANT	2.00000E-002	Sample Area (cm^2)
IMODE	SELECTOR	1	I/E Range Mode
IRANGE	QUANT	1.00000E-003	Max Current (mA)
EQDELAY	IQUANT	10	Equil. Time (s)
IRCOMP	SELECTOR	0	IRComp
PFCOR	QUANT	5.00000E+001	PF Corr. (ohm)
CYCLES	IQUANT	101	C&ycles (#)
ELECTRODETYPE	SELECTOR	0	Electrode Type
STRIPPING	TOGGLE	F	Used for Stripping
POLARITY	TOGGLE	F	Signal Polarity
LINEFREQ	IQUANT	60	Line Frequency (Hz)
INTPERIOD	QUANT	3.3334E-005	Integration Period (s)
SEQUENCER	TOGGLE	TRUE	Run as Sequence
PSTATMODEL	IQUANT	4	Pstat Model
PSTATSECTION	LABEL	REF600-24079	Pstat Section
PSTATSERIALNO	LABEL	24079	Pstat Serial Number
CTRLMODE	IQUANT	1	Control Mode
ELECTROMETER	IQUANT	0	RE=0 or CS=1
IESTAB	IQUANT	2	I/E Stability
CASPEED	IQUANT	6	Control Amp Speed
CONVENTION	IQUANT	1	Current Convention
ICHRANGE	IQUANT	2	Ich Range
ICHRANGEMODE	TOGGLE	F	Ich Auto Range
ICHOFFSETENABLE	TOGGLE	F	Ich Offset Enable
ICHOFFSET	QUANT	0	Ich Offset (V)
ICHFILTER	IQUANT	2	Ich Filter
VCHRANGE	IQUANT	2	Vch Range
VCHRANGEMODE	TOGGLE	F	Vch Auto Range
VCHOFFSETENABLE	TOGGLE	F	Vch Offset Enable
VCHOFFSET	QUANT	0	Vch Offset (V)
VCHFILTER	IQUANT	2	Vch Filter
ACHRANGE	IQUANT	2	Ach Range
ACHOFFSETENABLE	TOGGLE	F	Ach Offset Enable
ACHOFFSET	QUANT	0	Ach Offset (V)
ACHFILTER	IQUANT	1	Ach Filter
IERANGELOWERLIMIT	IQUANT	1	I/E Range Lower Limit
IERANGEMODE	TOGGLE	F	I/E AutoRange
IERANGE	IQUANT	6	I/E Range
POSFEEDENABLE	TOGGLE	F	Positive Feedback IR Comp
POSFEEDRESISTANCE	QUANT	0	Positive Feedback Resistance (ohm)
ACHSELECT	IQUANT	0	Ach Select
SENSECABLEID	IQUANT	13	Sense Cable ID
PWRCABLEID	IQUANT	13	Power Cable ID
DCCALDATE	LABEL	6/30/2020	DC Calibration Date
ACCALDATE	LABEL	6/30/2020	AC Calibration Date
THERMOSELECT	IQUANT	1	Thermo Select
FRAMEWORKVERSION	LABEL	7.8.2	Framework Version
INSTRUMENTVERSION	LABEL	4.40	Instrument Version
CURVE	TABLE	101
	Pt	T	Vfwd	Vrev	Vstep	Ifwd	Irev	Idif	Sig	Ach	IERange	Over	Temp
	#	s	V	V	V	A	A	A	V	V	#	bits	deg C
	0	0.1	-3.24943E-001	-3.74930E-001	-3.49936E-001	-8.63744E-008	-1.65956E-007	7.95818E-008	-3.75000E-001	2.49039E-004	6	..........a	-327.68
	2	0.3	-3.20918E-001	-3.70835E-001	-3.45876E-001	-6.78701E-008	-1.55108E-007	8.72381E-008	-3.71000E-001	2.79539E-004	6	..........a	-327.68
	4	0.5	-3.16886E-001	-3.66969E-001	-3.41928E-001	-6.30368E-008	-1.49234E-007	8.61970E-008	-3.67000E-001	2.62039E-004	6	..........a	-327.68
	6	0.7	-3.12956E-001	-3.62872E-001	-3.37914E-001	-5.95173E-008	-1.43545E-007	8.40273E-008	-3.63000E-001	2.63873E-004	6	..........a	-327.68
	8	0.9	-3.08934E-001	-3.58939E-001	-3.33936E-001	-5.60302E-008	-1.38548E-007	8.25182E-008	-3.59000E-001	2.68039E-004	6	..........a	-327.68
	10	1.1	-3.04978E-001	-3.54899E-001	-3.29939E-001	-5.25958E-008	-1.33852E-007	8.12560E-008	-3.55000E-001	2.55706E-004	6	..........a	-327.68
	12	1.3	-3.00956E-001	-3.50930E-001	-3.25943E-001	-4.94390E-008	-1.28789E-007	7.93498E-008	-3.51000E-001	2.71039E-004	6	..........a	-327.68
	14	1.5	-2.96939E-001	-3.46918E-001	-3.21928E-001	-4.61753E-008	-1.24406E-007	7.82306E-008	-3.47000E-001	2.63706E-004	6	..........a	-327.68
	16	1.7	-2.92779E-001	-3.42940E-001	-3.17859E-001	-4.33063E-008	-1.20146E-007	7.68401E-008	-3.43000E-001	2.78206E-004	6	..........a	-327.68
	18	1.9	-2.88973E-001	-3.38885E-001	-3.13929E-001	-4.01429E-008	-1.15828E-007	7.56850E-008	-3.39000E-001	2.60373E-004	6	..........a	-327.68
	20	2.1	-2.84883E-001	-3.34940E-001	-3.09912E-001	-3.73145E-008	-1.11976E-007	7.46618E-008	-3.35000E-001	2.62206E-004	6	..........a	-327.68
	22	2.3	-2.80988E-001	-3.30875E-001	-3.05931E-001	-3.43955E-008	-1.08183E-007	7.37877E-008	-3.31000E-001	2.60039E-004	6	..........a	-327.68
	24	2.5	-2.76950E-001	-3.26937E-001	-3.01943E-001	-3.12741E-008	-1.04247E-007	7.29733E-008	-3.27000E-001	2.56206E-004	6	..........a	-327.68
	26	2.7	-2.72944E-001	-3.22908E-001	-2.97926E-001	-2.87347E-008	-1.00816E-007	7.20812E-008	-3.23000E-001	2.68039E-004	6	..........a	-327.68
	28	2.9	-2.68931E-001	-3.18974E-001	-2.93952E-001	-2.60944E-008	-9.76912E-008	7.15968E-008	-3.19000E-001	2.50706E-004	6	..........a	-327.68
	30	3.1	-2.64984E-001	-3.14929E-001	-2.89957E-001	-2.33851E-008	-9.42574E-008	7.08723E-008	-3.15000E-001	2.69206E-004	6	..........a	-327.68
	32	3.3	-2.60918E-001	-3.10951E-001	-2.85935E-001	-2.10938E-008	-9.14184E-008	7.03246E-008	-3.11000E-001	2.62373E-004	6	..........a	-327.68
	34	3.5	-2.56939E-001	-3.06894E-001	-2.81917E-001	-1.84168E-008	-8.85837E-008	7.01669E-008	-3.07000E-001	2.73873E-004	6	..........a	-327.68
	36	3.7	-2.52927E-001	-3.02955E-001	-2.77941E-001	-1.64002E-008	-8.57957E-008	6.93955E-008	-3.03000E-001	2.57539E-004	6	..........a	-327.68
	38	3.9	-2.48945E-001	-2.98906E-001	-2.73926E-001	-1.40689E-008	-8.32057E-008	6.91368E-008	-2.99000E-001	2.56873E-004	6	..........a	-327.68
	40	4.1	-2.44920E-001	-2.94901E-001	-2.69910E-001	-1.19149E-008	-8.05057E-008	6.85907E-008	-2.95000E-001	2.73706E-004	6	..........a	-327.68
	42	4.3	-2.41002E-001	-2.90869E-001	-2.65935E-001	-9.88767E-009	-7.79570E-008	6.80693E-008	-2.91000E-001	2.63039E-004	6	..........a	-327.68
	44	4.5	-2.36902E-001	-2.86944E-001	-2.61923E-001	-8.40649E-009	-7.58074E-008	6.74009E-008	-2.87000E-001	2.78039E-004	6	..........a	-327.68
	46	4.7	-2.32940E-001	-2.82882E-001	-2.57911E-001	-6.61426E-009	-7.34218E-008	6.68075E-008	-2.83000E-001	2.56373E-004	6	..........a	-327.68
	48	4.9	-2.28903E-001	-2.78932E-001	-2.53918E-001	-5.18941E-009	-7.08398E-008	6.56503E-008	-2.79000E-001	2.69373E-004	6	..........a	-327.68
	50	5.1	-2.24936E-001	-2.74894E-001	-2.49915E-001	-3.61521E-009	-6.84461E-008	6.48309E-008	-2.75000E-001	2.65206E-004	6	..........a	-327.68
	52	5.3	-2.20923E-001	-2.70902E-001	-2.45912E-001	-2.39639E-009	-6.64599E-008	6.40635E-008	-2.71000E-001	2.59373E-004	6	..........a	-327.68
	54	5.5	-2.16978E-001	-2.66840E-001	-2.41909E-001	-9.02531E-010	-6.40506E-008	6.31480E-008	-2.67000E-001	2.73873E-004	6	..........a	-327.68
	56	5.7	-2.12922E-001	-2.62893E-001	-2.37907E-001	2.07943E-010	-6.18036E-008	6.20116E-008	-2.63000E-001	2.58206E-004	6	..........a	-327.68
	58	5.9	-2.08919E-001	-2.58880E-001	-2.33899E-001	1.27008E-009	-5.95010E-008	6.07711E-008	-2.59000E-001	2.64373E-004	6	..........a	-327.68
	60	6.1	-2.04915E-001	-2.54938E-001	-2.29926E-001	2.39622E-009	-5.73944E-008	5.97906E-008	-2.55000E-001	2.50373E-004	6	..........a	-327.68
	62	6.3	-2.00938E-001	-2.50905E-001	-2.25922E-001	3.38168E-009	-5.54685E-008	5.88502E-008	-2.51000E-001	2.64206E-004	6	..........a	-327.68
	64	6.5	-1.96932E-001	-2.46903E-001	-2.21918E-001	4.30813E-009	-5.31745E-008	5.74826E-008	-2.47000E-001	2.53873E-004	6	..........a	-327.68
	66	6.7	-1.92933E-001	-2.42851E-001	-2.17892E-001	5.21458E-009	-5.13560E-008	5.65705E-008	-2.43000E-001	2.36373E-004	6	..........a	-327.68
	68	6.9	-1.88842E-001	-2.38941E-001	-2.13891E-001	5.94401E-009	-4.94357E-008	5.53797E-008	-2.39000E-001	2.55706E-004	6	..........a	-327.68
	70	7.1	-1.84946E-001	-2.34876E-001	-2.09911E-001	6.99547E-009	-4.79379E-008	5.49333E-008	-2.35000E-001	2.39373E-004	6	..........a	-327.68
	72	7.3	-1.80851E-001	-2.30925E-001	-2.05888E-001	8.06028E-009	-4.60966E-008	5.41569E-008	-2.31000E-001	2.43373E-004	6	..........a	-327.68
	74	7.5	-1.76921E-001	-2.26876E-001	-2.01898E-001	9.12541E-009	-4.45401E-008	5.36655E-008	-2.27000E-001	2.37206E-004	6	..........a	-327.68
	76	7.7	-1.72902E-001	-2.22923E-001	-1.97913E-001	9.88084E-009	-4.30152E-008	5.28961E-008	-2.23000E-001	2.31873E-004	6	..........a	-327.68
	78	7.9	-1.68922E-001	-2.18899E-001	-1.93910E-001	1.07640E-008	-4.14074E-008	5.21713E-008	-2.19000E-001	2.39873E-004	6	..........a	-327.68
	80	8.1	-1.64747E-001	-2.14976E-001	-1.89861E-001	1.15367E-008	-4.02099E-008	5.17466E-008	-2.15000E-001	2.27539E-004	6	..........a	-327.68
	82	8.3	-1.60937E-001	-2.10893E-001	-1.85915E-001	1.25788E-008	-3.88887E-008	5.14675E-008	-2.11000E-001	2.43873E-004	6	..........a	-327.68
	84	8.5	-1.56857E-001	-2.06932E-001	-1.81895E-001	1.30856E-008	-3.73398E-008	5.04254E-008	-2.07000E-001	2.30873E-004	6	..........a	-327.68
	86	8.7	-1.52947E-001	-2.02867E-001	-1.77907E-001	1.40154E-008	-3.64524E-008	5.04678E-008	-2.03000E-001	2.51373E-004	6	..........a	-327.68
	88	8.9	-1.48897E-001	-1.98936E-001	-1.73916E-001	1.47735E-008	-3.51986E-008	4.99720E-008	-1.99000E-001	2.28206E-004	6	..........a	-327.68
	90	9.1	-1.44912E-001	-1.94906E-001	-1.69909E-001	1.54232E-008	-3.42911E-008	4.97143E-008	-1.95000E-001	2.44539E-004	6	..........a	-327.68
	92	9.3	-1.40918E-001	-1.90976E-001	-1.65947E-001	1.63567E-008	-3.32727E-008	4.96293E-008	-1.91000E-001	2.47206E-004	6	..........a	-327.68
	94	9.5	-1.36937E-001	-1.86886E-001	-1.61911E-001	1.69214E-008	-3.20458E-008	4.89672E-008	-1.87000E-001	2.33039E-004	6	..........a	-327.68
	96	9.7	-1.32851E-001	-1.82928E-001	-1.57890E-001	1.78479E-008	-3.14751E-008	4.93229E-008	-1.83000E-001	2.59873E-004	6	..........a	-327.68
	98	9.9	-1.28918E-001	-1.78875E-001	-1.53896E-001	1.82699E-008	-3.03483E-008	4.86182E-008	-1.79000E-001	2.27873E-004	6	..........a	-327.68
	100	10.1	-1.24907E-001	-1.74932E-001	-1.49920E-001	1.87670E-008	-2.96892E-008	4.84562E-008	-1.75000E-001	2.53206E-004	6	..........a	-327.68