Folder: EchemAnalysis_AMA/C-COM3 (part 3)

File: SWV_10Hz STD3 10  fgml 081020_#9.DTA
EXPLAIN
TAG	SQUARE_WAVE
TITLE	LABEL	Square Wave Voltammetry	Test Identifier
DATE	LABEL	8/10/2020	Date
TIME	LABEL	17:56:12	Time
NOTES	NOTES	1	Notes...
	 STD3, 10  fg/mL 08102
PSTAT	PSTAT	REF600-24079	Potentiostat
VINIT	QUANT	-3.50000E-001	Initial E (V)
VFINAL	QUANT	-1.50000E-001	Final E (V)
STEPSIZE	QUANT	2.00000E+000	Step Size (mV)
TIMERRES	QUANT	3.33340E-005	&Timer Resolution
FREQUENCY	QUANT	1.00000E+001	Frequency (Hz)
PULSESIZE	QUANT	2.50000E+001	Pulse Size E (mV)
PULSEON	QUANT	1.00000E-001	Pulse &Time (s)
NOISEREJECT	TOGGLE	F	Noise Rejection
AREA	QUANT	2.00000E-002	Sample Area (cm^2)
IMODE	SELECTOR	1	I/E Range Mode
IRANGE	QUANT	1.00000E-003	Max Current (mA)
EQDELAY	IQUANT	10	Equil. Time (s)
IRCOMP	SELECTOR	0	IRComp
PFCOR	QUANT	5.00000E+001	PF Corr. (ohm)
CYCLES	IQUANT	101	C&ycles (#)
ELECTRODETYPE	SELECTOR	0	Electrode Type
STRIPPING	TOGGLE	F	Used for Stripping
POLARITY	TOGGLE	F	Signal Polarity
LINEFREQ	IQUANT	60	Line Frequency (Hz)
INTPERIOD	QUANT	3.3334E-005	Integration Period (s)
SEQUENCER	TOGGLE	TRUE	Run as Sequence
PSTATMODEL	IQUANT	4	Pstat Model
PSTATSECTION	LABEL	REF600-24079	Pstat Section
PSTATSERIALNO	LABEL	24079	Pstat Serial Number
CTRLMODE	IQUANT	1	Control Mode
ELECTROMETER	IQUANT	0	RE=0 or CS=1
IESTAB	IQUANT	2	I/E Stability
CASPEED	IQUANT	6	Control Amp Speed
CONVENTION	IQUANT	1	Current Convention
ICHRANGE	IQUANT	2	Ich Range
ICHRANGEMODE	TOGGLE	F	Ich Auto Range
ICHOFFSETENABLE	TOGGLE	F	Ich Offset Enable
ICHOFFSET	QUANT	0	Ich Offset (V)
ICHFILTER	IQUANT	2	Ich Filter
VCHRANGE	IQUANT	2	Vch Range
VCHRANGEMODE	TOGGLE	F	Vch Auto Range
VCHOFFSETENABLE	TOGGLE	F	Vch Offset Enable
VCHOFFSET	QUANT	0	Vch Offset (V)
VCHFILTER	IQUANT	2	Vch Filter
ACHRANGE	IQUANT	2	Ach Range
ACHOFFSETENABLE	TOGGLE	F	Ach Offset Enable
ACHOFFSET	QUANT	0	Ach Offset (V)
ACHFILTER	IQUANT	1	Ach Filter
IERANGELOWERLIMIT	IQUANT	1	I/E Range Lower Limit
IERANGEMODE	TOGGLE	F	I/E AutoRange
IERANGE	IQUANT	6	I/E Range
POSFEEDENABLE	TOGGLE	F	Positive Feedback IR Comp
POSFEEDRESISTANCE	QUANT	0	Positive Feedback Resistance (ohm)
ACHSELECT	IQUANT	0	Ach Select
SENSECABLEID	IQUANT	13	Sense Cable ID
PWRCABLEID	IQUANT	13	Power Cable ID
DCCALDATE	LABEL	6/30/2020	DC Calibration Date
ACCALDATE	LABEL	6/30/2020	AC Calibration Date
THERMOSELECT	IQUANT	1	Thermo Select
FRAMEWORKVERSION	LABEL	7.8.2	Framework Version
INSTRUMENTVERSION	LABEL	4.40	Instrument Version
CURVE	TABLE	101
	Pt	T	Vfwd	Vrev	Vstep	Ifwd	Irev	Idif	Sig	Ach	IERange	Over	Temp
	#	s	V	V	V	A	A	A	V	V	#	bits	deg C
	0	0.1	-3.24876E-001	-3.74884E-001	-3.49880E-001	-8.08020E-008	-1.57826E-007	7.70238E-008	-3.75000E-001	3.84039E-004	6	..........a	-327.68
	2	0.3	-3.20866E-001	-3.70772E-001	-3.45819E-001	-6.34218E-008	-1.47748E-007	8.43257E-008	-3.71000E-001	3.77039E-004	6	..........a	-327.68
	4	0.5	-3.16784E-001	-3.66929E-001	-3.41856E-001	-5.90376E-008	-1.41788E-007	8.27505E-008	-3.67000E-001	3.91373E-004	6	..........a	-327.68
	6	0.7	-3.12879E-001	-3.62814E-001	-3.37846E-001	-5.53618E-008	-1.36415E-007	8.10533E-008	-3.63000E-001	3.66039E-004	6	..........a	-327.68
	8	0.9	-3.08860E-001	-3.58878E-001	-3.33869E-001	-5.20707E-008	-1.31436E-007	7.93651E-008	-3.59000E-001	3.77373E-004	6	..........a	-327.68
	10	1.1	-3.04907E-001	-3.54829E-001	-3.29868E-001	-4.91370E-008	-1.26584E-007	7.74472E-008	-3.55000E-001	3.78706E-004	6	..........a	-327.68
	12	1.3	-3.00907E-001	-3.50893E-001	-3.25900E-001	-4.61013E-008	-1.22048E-007	7.59470E-008	-3.51000E-001	3.83539E-004	6	..........a	-327.68
	14	1.5	-2.96894E-001	-3.46877E-001	-3.21886E-001	-4.32623E-008	-1.17462E-007	7.41998E-008	-3.47000E-001	3.89539E-004	6	..........a	-327.68
	16	1.7	-2.92722E-001	-3.42892E-001	-3.17807E-001	-4.01429E-008	-1.13223E-007	7.30800E-008	-3.43000E-001	3.82706E-004	6	..........a	-327.68
	18	1.9	-2.88926E-001	-3.38828E-001	-3.13877E-001	-3.71745E-008	-1.09062E-007	7.18872E-008	-3.39000E-001	3.86039E-004	6	..........a	-327.68
	20	2.1	-2.84800E-001	-3.34879E-001	-3.09839E-001	-3.44428E-008	-1.05195E-007	7.07523E-008	-3.35000E-001	3.96706E-004	6	..........a	-327.68
	22	2.3	-2.80891E-001	-3.30816E-001	-3.05853E-001	-3.17308E-008	-1.01383E-007	6.96522E-008	-3.31000E-001	3.80039E-004	6	..........a	-327.68
	24	2.5	-2.76865E-001	-3.26899E-001	-3.01882E-001	-2.92351E-008	-9.79549E-008	6.87197E-008	-3.27000E-001	3.86706E-004	6	..........a	-327.68
	26	2.7	-2.72898E-001	-3.22863E-001	-2.97880E-001	-2.67188E-008	-9.43098E-008	6.75909E-008	-3.23000E-001	3.78039E-004	6	..........a	-327.68
	28	2.9	-2.68895E-001	-3.18889E-001	-2.93892E-001	-2.40768E-008	-9.12747E-008	6.71979E-008	-3.19000E-001	3.71039E-004	6	..........a	-327.68
	30	3.1	-2.64913E-001	-3.14874E-001	-2.89893E-001	-2.16255E-008	-8.78913E-008	6.62658E-008	-3.15000E-001	3.86206E-004	6	..........a	-327.68
	32	3.3	-2.60807E-001	-3.10894E-001	-2.85850E-001	-1.94546E-008	-8.48979E-008	6.54433E-008	-3.11000E-001	3.79206E-004	6	..........a	-327.68
	34	3.5	-2.56865E-001	-3.06830E-001	-2.81848E-001	-1.69306E-008	-8.19418E-008	6.50113E-008	-3.07000E-001	3.85206E-004	6	..........a	-327.68
	36	3.7	-2.52836E-001	-3.02902E-001	-2.77869E-001	-1.48773E-008	-7.93895E-008	6.45122E-008	-3.03000E-001	4.03039E-004	6	..........a	-327.68
	38	3.9	-2.48905E-001	-2.98874E-001	-2.73890E-001	-1.29224E-008	-7.64178E-008	6.34954E-008	-2.99000E-001	3.79039E-004	6	..........a	-327.68
	40	4.1	-2.44882E-001	-2.94878E-001	-2.69880E-001	-1.10628E-008	-7.40872E-008	6.30244E-008	-2.95000E-001	3.84373E-004	6	..........a	-327.68
	42	4.3	-2.40891E-001	-2.90799E-001	-2.65845E-001	-9.27160E-009	-7.18182E-008	6.25466E-008	-2.91000E-001	3.88539E-004	6	..........a	-327.68
	44	4.5	-2.36840E-001	-2.86871E-001	-2.61856E-001	-7.54404E-009	-6.92749E-008	6.17309E-008	-2.87000E-001	3.88373E-004	6	..........a	-327.68
	46	4.7	-2.32857E-001	-2.82811E-001	-2.57834E-001	-6.00685E-009	-6.70099E-008	6.10031E-008	-2.83000E-001	3.93373E-004	6	..........a	-327.68
	48	4.9	-2.28811E-001	-2.78877E-001	-2.53844E-001	-4.70168E-009	-6.46000E-008	5.98983E-008	-2.79000E-001	3.72873E-004	6	..........a	-327.68
	50	5.1	-2.24890E-001	-2.74855E-001	-2.49873E-001	-3.10915E-009	-6.26427E-008	5.95336E-008	-2.75000E-001	3.93039E-004	6	..........a	-327.68
	52	5.3	-2.20877E-001	-2.70860E-001	-2.45868E-001	-1.86865E-009	-6.02928E-008	5.84241E-008	-2.71000E-001	3.92373E-004	6	..........a	-327.68
	54	5.5	-2.16899E-001	-2.66783E-001	-2.41841E-001	-6.96505E-010	-5.81978E-008	5.75013E-008	-2.67000E-001	3.79706E-004	6	..........a	-327.68
	56	5.7	-2.12856E-001	-2.62864E-001	-2.37860E-001	4.38973E-010	-5.60462E-008	5.64852E-008	-2.63000E-001	3.84873E-004	6	..........a	-327.68
	58	5.9	-2.08872E-001	-2.58815E-001	-2.33843E-001	1.46144E-009	-5.39483E-008	5.54097E-008	-2.59000E-001	3.82039E-004	6	..........a	-327.68
	60	6.1	-2.04821E-001	-2.54912E-001	-2.29866E-001	2.62892E-009	-5.20337E-008	5.46626E-008	-2.55000E-001	3.80539E-004	6	..........a	-327.68
	62	6.3	-2.00887E-001	-2.50841E-001	-2.25864E-001	3.60104E-009	-5.01541E-008	5.37552E-008	-2.51000E-001	3.82039E-004	6	..........a	-327.68
	64	6.5	-1.96887E-001	-2.46886E-001	-2.21887E-001	4.38447E-009	-4.83416E-008	5.27260E-008	-2.47000E-001	3.79706E-004	6	..........a	-327.68
	66	6.7	-1.92908E-001	-2.42780E-001	-2.17844E-001	5.16857E-009	-4.66827E-008	5.18513E-008	-2.43000E-001	3.73873E-004	6	..........a	-327.68
	68	6.9	-1.88755E-001	-2.38890E-001	-2.13823E-001	6.27171E-009	-4.48205E-008	5.10922E-008	-2.39000E-001	3.72539E-004	6	..........a	-327.68
	70	7.1	-1.84899E-001	-2.34802E-001	-2.09851E-001	7.11816E-009	-4.33166E-008	5.04348E-008	-2.35000E-001	3.67539E-004	6	..........a	-327.68
	72	7.3	-1.80784E-001	-2.30874E-001	-2.05829E-001	8.06528E-009	-4.16754E-008	4.97407E-008	-2.31000E-001	3.79373E-004	6	..........a	-327.68
	74	7.5	-1.76863E-001	-2.26823E-001	-2.01843E-001	8.98839E-009	-4.01425E-008	4.91309E-008	-2.27000E-001	3.58706E-004	6	..........a	-327.68
	76	7.7	-1.72865E-001	-2.22885E-001	-1.97875E-001	9.49612E-009	-3.88834E-008	4.83795E-008	-2.23000E-001	3.47539E-004	6	..........a	-327.68
	78	7.9	-1.68876E-001	-2.18878E-001	-1.93877E-001	1.03436E-008	-3.73142E-008	4.76577E-008	-2.19000E-001	3.45039E-004	6	..........a	-327.68
	80	8.1	-1.64716E-001	-2.14914E-001	-1.89815E-001	1.12957E-008	-3.62354E-008	4.75310E-008	-2.15000E-001	3.56039E-004	6	..........a	-327.68
	82	8.3	-1.60917E-001	-2.10846E-001	-1.85881E-001	1.17657E-008	-3.51252E-008	4.68910E-008	-2.11000E-001	3.56039E-004	6	..........a	-327.68
	84	8.5	-1.56806E-001	-2.06892E-001	-1.81849E-001	1.25802E-008	-3.41004E-008	4.66806E-008	-2.07000E-001	3.59706E-004	6	..........a	-327.68
	86	8.7	-1.52899E-001	-2.02829E-001	-1.77864E-001	1.32883E-008	-3.28633E-008	4.61515E-008	-2.03000E-001	3.68873E-004	6	..........a	-327.68
	88	8.9	-1.48852E-001	-1.98897E-001	-1.73874E-001	1.39487E-008	-3.17518E-008	4.57005E-008	-1.99000E-001	3.64373E-004	6	..........a	-327.68
	90	9.1	-1.44886E-001	-1.94863E-001	-1.69874E-001	1.46328E-008	-3.08877E-008	4.55205E-008	-1.95000E-001	3.57373E-004	6	..........a	-327.68
	92	9.3	-1.40887E-001	-1.90900E-001	-1.65893E-001	1.54419E-008	-3.01999E-008	4.56418E-008	-1.91000E-001	3.64539E-004	6	..........a	-327.68
	94	9.5	-1.36879E-001	-1.86820E-001	-1.61850E-001	1.61113E-008	-2.92005E-008	4.53118E-008	-1.87000E-001	3.50706E-004	6	..........a	-327.68
	96	9.7	-1.32742E-001	-1.82877E-001	-1.57809E-001	1.64583E-008	-2.84880E-008	4.49464E-008	-1.83000E-001	3.60873E-004	6	..........a	-327.68
	98	9.9	-1.28841E-001	-1.78804E-001	-1.53822E-001	1.72724E-008	-2.77826E-008	4.50551E-008	-1.79000E-001	3.45539E-004	6	..........a	-327.68
	100	10.1	-1.24824E-001	-1.74894E-001	-1.49859E-001	1.77342E-008	-2.68948E-008	4.46290E-008	-1.75000E-001	3.66873E-004	6	..........a	-327.68

File: SWV_10Hz STD3 50  fgml 081020_#1.DTA
EXPLAIN
TAG	SQUARE_WAVE
TITLE	LABEL	Square Wave Voltammetry	Test Identifier
DATE	LABEL	8/10/2020	Date
TIME	LABEL	19:11:50	Time
NOTES	NOTES	1	Notes...
	 STD3 50  fg/mL 08102
PSTAT	PSTAT	REF600-24079	Potentiostat
VINIT	QUANT	-3.50000E-001	Initial E (V)
VFINAL	QUANT	-1.50000E-001	Final E (V)
STEPSIZE	QUANT	2.00000E+000	Step Size (mV)
TIMERRES	QUANT	3.33340E-005	&Timer Resolution
FREQUENCY	QUANT	1.00000E+001	Frequency (Hz)
PULSESIZE	QUANT	2.50000E+001	Pulse Size E (mV)
PULSEON	QUANT	1.00000E-001	Pulse &Time (s)
NOISEREJECT	TOGGLE	F	Noise Rejection
AREA	QUANT	2.00000E-002	Sample Area (cm^2)
IMODE	SELECTOR	1	I/E Range Mode
IRANGE	QUANT	1.00000E-003	Max Current (mA)
EQDELAY	IQUANT	10	Equil. Time (s)
IRCOMP	SELECTOR	0	IRComp
PFCOR	QUANT	5.00000E+001	PF Corr. (ohm)
CYCLES	IQUANT	101	C&ycles (#)
ELECTRODETYPE	SELECTOR	0	Electrode Type
STRIPPING	TOGGLE	F	Used for Stripping
POLARITY	TOGGLE	F	Signal Polarity
LINEFREQ	IQUANT	60	Line Frequency (Hz)
INTPERIOD	QUANT	3.3334E-005	Integration Period (s)
SEQUENCER	TOGGLE	TRUE	Run as Sequence
PSTATMODEL	IQUANT	4	Pstat Model
PSTATSECTION	LABEL	REF600-24079	Pstat Section
PSTATSERIALNO	LABEL	24079	Pstat Serial Number
CTRLMODE	IQUANT	1	Control Mode
ELECTROMETER	IQUANT	0	RE=0 or CS=1
IESTAB	IQUANT	2	I/E Stability
CASPEED	IQUANT	6	Control Amp Speed
CONVENTION	IQUANT	1	Current Convention
ICHRANGE	IQUANT	2	Ich Range
ICHRANGEMODE	TOGGLE	F	Ich Auto Range
ICHOFFSETENABLE	TOGGLE	F	Ich Offset Enable
ICHOFFSET	QUANT	0	Ich Offset (V)
ICHFILTER	IQUANT	2	Ich Filter
VCHRANGE	IQUANT	2	Vch Range
VCHRANGEMODE	TOGGLE	F	Vch Auto Range
VCHOFFSETENABLE	TOGGLE	F	Vch Offset Enable
VCHOFFSET	QUANT	0	Vch Offset (V)
VCHFILTER	IQUANT	2	Vch Filter
ACHRANGE	IQUANT	2	Ach Range
ACHOFFSETENABLE	TOGGLE	F	Ach Offset Enable
ACHOFFSET	QUANT	0	Ach Offset (V)
ACHFILTER	IQUANT	1	Ach Filter
IERANGELOWERLIMIT	IQUANT	1	I/E Range Lower Limit
IERANGEMODE	TOGGLE	F	I/E AutoRange
IERANGE	IQUANT	6	I/E Range
POSFEEDENABLE	TOGGLE	F	Positive Feedback IR Comp
POSFEEDRESISTANCE	QUANT	0	Positive Feedback Resistance (ohm)
ACHSELECT	IQUANT	0	Ach Select
SENSECABLEID	IQUANT	13	Sense Cable ID
PWRCABLEID	IQUANT	13	Power Cable ID
DCCALDATE	LABEL	6/30/2020	DC Calibration Date
ACCALDATE	LABEL	6/30/2020	AC Calibration Date
THERMOSELECT	IQUANT	1	Thermo Select
FRAMEWORKVERSION	LABEL	7.8.2	Framework Version
INSTRUMENTVERSION	LABEL	4.40	Instrument Version
CURVE	TABLE	101
	Pt	T	Vfwd	Vrev	Vstep	Ifwd	Irev	Idif	Sig	Ach	IERange	Over	Temp
	#	s	V	V	V	A	A	A	V	V	#	bits	deg C
	0	0.1	-3.24925E-001	-3.74918E-001	-3.49921E-001	-1.38716E-007	-2.72193E-007	1.33478E-007	-3.75000E-001	3.23373E-004	6	..........a	-327.68
	2	0.3	-3.20921E-001	-3.70788E-001	-3.45855E-001	-1.17620E-007	-2.53874E-007	1.36254E-007	-3.71000E-001	3.41206E-004	6	..........a	-327.68
	4	0.5	-3.16886E-001	-3.66941E-001	-3.41914E-001	-1.09597E-007	-2.40295E-007	1.30698E-007	-3.67000E-001	3.20206E-004	6	..........a	-327.68
	6	0.7	-3.12927E-001	-3.62824E-001	-3.37875E-001	-1.02558E-007	-2.28307E-007	1.25749E-007	-3.63000E-001	3.48039E-004	6	..........a	-327.68
	8	0.9	-3.08921E-001	-3.58898E-001	-3.33910E-001	-9.62693E-008	-2.17326E-007	1.21057E-007	-3.59000E-001	3.24539E-004	6	..........a	-327.68
	10	1.1	-3.04933E-001	-3.54860E-001	-3.29897E-001	-9.00992E-008	-2.06812E-007	1.16713E-007	-3.55000E-001	3.34206E-004	6	..........a	-327.68
	12	1.3	-3.00935E-001	-3.50912E-001	-3.25924E-001	-8.42048E-008	-1.97240E-007	1.13035E-007	-3.51000E-001	3.31373E-004	6	..........a	-327.68
	14	1.5	-2.96938E-001	-3.46902E-001	-3.21920E-001	-7.86471E-008	-1.87948E-007	1.09301E-007	-3.47000E-001	3.25539E-004	6	..........a	-327.68
	16	1.7	-2.92826E-001	-3.42881E-001	-3.17854E-001	-7.32177E-008	-1.79332E-007	1.06114E-007	-3.43000E-001	3.53539E-004	6	..........a	-327.68
	18	1.9	-2.88950E-001	-3.38840E-001	-3.13895E-001	-6.84248E-008	-1.71127E-007	1.02702E-007	-3.39000E-001	3.27873E-004	6	..........a	-327.68
	20	2.1	-2.84883E-001	-3.34905E-001	-3.09894E-001	-6.34328E-008	-1.63454E-007	1.00021E-007	-3.35000E-001	3.64539E-004	6	..........a	-327.68
	22	2.3	-2.80972E-001	-3.30842E-001	-3.05907E-001	-5.89113E-008	-1.55933E-007	9.70217E-008	-3.31000E-001	3.33539E-004	6	..........a	-327.68
	24	2.5	-2.76923E-001	-3.26947E-001	-3.01935E-001	-5.42910E-008	-1.49158E-007	9.48667E-008	-3.27000E-001	3.28539E-004	6	..........a	-327.68
	26	2.7	-2.72930E-001	-3.22885E-001	-2.97908E-001	-4.98974E-008	-1.42539E-007	9.26414E-008	-3.23000E-001	3.29373E-004	6	..........a	-327.68
	28	2.9	-2.68935E-001	-3.18960E-001	-2.93947E-001	-4.60523E-008	-1.36201E-007	9.01485E-008	-3.19000E-001	3.03539E-004	6	..........a	-327.68
	30	3.1	-2.64956E-001	-3.14887E-001	-2.89922E-001	-4.21601E-008	-1.30209E-007	8.80486E-008	-3.15000E-001	3.23539E-004	6	..........a	-327.68
	32	3.3	-2.60894E-001	-3.10916E-001	-2.85905E-001	-3.83980E-008	-1.24697E-007	8.62993E-008	-3.11000E-001	3.16539E-004	6	..........a	-327.68
	34	3.5	-2.56906E-001	-3.06844E-001	-2.81875E-001	-3.48395E-008	-1.19284E-007	8.44447E-008	-3.07000E-001	3.40206E-004	6	..........a	-327.68
	36	3.7	-2.52946E-001	-3.02950E-001	-2.77948E-001	-3.16754E-008	-1.14291E-007	8.26155E-008	-3.03000E-001	3.16373E-004	6	..........a	-327.68
	38	3.9	-2.48936E-001	-2.98898E-001	-2.73917E-001	-2.81653E-008	-1.09507E-007	8.13420E-008	-2.99000E-001	3.29373E-004	6	..........a	-327.68
	40	4.1	-2.44925E-001	-2.94920E-001	-2.69922E-001	-2.52213E-008	-1.04929E-007	7.97081E-008	-2.95000E-001	3.31706E-004	6	..........a	-327.68
	42	4.3	-2.40951E-001	-2.90818E-001	-2.65884E-001	-2.25270E-008	-1.00546E-007	7.80186E-008	-2.91000E-001	3.27039E-004	6	..........a	-327.68
	44	4.5	-2.36925E-001	-2.86913E-001	-2.61919E-001	-1.99196E-008	-9.65787E-008	7.66591E-008	-2.87000E-001	3.44539E-004	6	..........a	-327.68
	46	4.7	-2.32933E-001	-2.82849E-001	-2.57891E-001	-1.78460E-008	-9.27756E-008	7.49295E-008	-2.83000E-001	3.11539E-004	6	..........a	-327.68
	48	4.9	-2.28863E-001	-2.78931E-001	-2.53897E-001	-1.53717E-008	-8.87947E-008	7.34230E-008	-2.79000E-001	3.38873E-004	6	..........a	-327.68
	50	5.1	-2.24937E-001	-2.74892E-001	-2.49914E-001	-1.32504E-008	-8.53726E-008	7.21222E-008	-2.75000E-001	3.17539E-004	6	..........a	-327.68
	52	5.3	-2.20923E-001	-2.70933E-001	-2.45928E-001	-1.14825E-008	-8.17015E-008	7.02189E-008	-2.71000E-001	3.20373E-004	6	..........a	-327.68
	54	5.5	-2.16980E-001	-2.66797E-001	-2.41888E-001	-9.68131E-009	-7.83214E-008	6.86401E-008	-2.67000E-001	3.24373E-004	6	..........a	-327.68
	56	5.7	-2.12921E-001	-2.62926E-001	-2.37923E-001	-7.83141E-009	-7.51176E-008	6.72862E-008	-2.63000E-001	3.14539E-004	6	..........a	-327.68
	58	5.9	-2.08905E-001	-2.58827E-001	-2.33866E-001	-6.22854E-009	-7.18492E-008	6.56207E-008	-2.59000E-001	3.48206E-004	6	..........a	-327.68
	60	6.1	-2.04912E-001	-2.54944E-001	-2.29928E-001	-4.37097E-009	-6.89025E-008	6.45315E-008	-2.55000E-001	3.23706E-004	6	..........a	-327.68
	62	6.3	-2.00928E-001	-2.50873E-001	-2.25900E-001	-3.01080E-009	-6.59361E-008	6.29253E-008	-2.51000E-001	3.60039E-004	6	..........a	-327.68
	64	6.5	-1.96936E-001	-2.46906E-001	-2.21921E-001	-1.57428E-009	-6.33835E-008	6.18092E-008	-2.47000E-001	3.15039E-004	6	..........a	-327.68
	66	6.7	-1.92926E-001	-2.42797E-001	-2.17861E-001	-1.80856E-011	-6.05371E-008	6.05190E-008	-2.43000E-001	3.30039E-004	6	..........a	-327.68
	68	6.9	-1.88872E-001	-2.38912E-001	-2.13892E-001	1.16673E-009	-5.84579E-008	5.96246E-008	-2.39000E-001	3.31039E-004	6	..........a	-327.68
	70	7.1	-1.84939E-001	-2.34837E-001	-2.09888E-001	2.21487E-009	-5.58952E-008	5.81101E-008	-2.35000E-001	3.06706E-004	6	..........a	-327.68
	72	7.3	-1.80881E-001	-2.30891E-001	-2.05886E-001	3.19132E-009	-5.36152E-008	5.68066E-008	-2.31000E-001	3.31539E-004	6	..........a	-327.68
	74	7.5	-1.76924E-001	-2.26852E-001	-2.01888E-001	4.29513E-009	-5.16797E-008	5.59748E-008	-2.27000E-001	3.12373E-004	6	..........a	-327.68
	76	7.7	-1.72929E-001	-2.22917E-001	-1.97923E-001	5.54096E-009	-5.00004E-008	5.55414E-008	-2.23000E-001	3.25206E-004	6	..........a	-327.68
	78	7.9	-1.68952E-001	-2.18904E-001	-1.93928E-001	6.32105E-009	-4.81749E-008	5.44959E-008	-2.19000E-001	3.04039E-004	6	..........a	-327.68
	80	8.1	-1.64801E-001	-2.14904E-001	-1.89853E-001	7.40786E-009	-4.61086E-008	5.35165E-008	-2.15000E-001	3.07373E-004	6	..........a	-327.68
	82	8.3	-1.60952E-001	-2.10862E-001	-1.85907E-001	8.46799E-009	-4.45814E-008	5.30494E-008	-2.11000E-001	3.05873E-004	6	..........a	-327.68
	84	8.5	-1.56877E-001	-2.06913E-001	-1.81895E-001	9.21509E-009	-4.31866E-008	5.24017E-008	-2.07000E-001	2.96039E-004	6	..........a	-327.68
	86	8.7	-1.52942E-001	-2.02850E-001	-1.77896E-001	1.00355E-008	-4.18051E-008	5.18406E-008	-2.03000E-001	3.16539E-004	6	..........a	-327.68
	88	8.9	-1.48908E-001	-1.98937E-001	-1.73923E-001	1.09786E-008	-4.04269E-008	5.14055E-008	-1.99000E-001	2.98373E-004	6	..........a	-327.68
	90	9.1	-1.44922E-001	-1.94893E-001	-1.69908E-001	1.17731E-008	-3.88734E-008	5.06464E-008	-1.95000E-001	3.11706E-004	6	..........a	-327.68
	92	9.3	-1.40945E-001	-1.90948E-001	-1.65946E-001	1.26009E-008	-3.78272E-008	5.04281E-008	-1.91000E-001	2.87706E-004	6	..........a	-327.68
	94	9.5	-1.36919E-001	-1.86841E-001	-1.61880E-001	1.33306E-008	-3.65364E-008	4.98670E-008	-1.87000E-001	2.97873E-004	6	..........a	-327.68
	96	9.7	-1.32866E-001	-1.82934E-001	-1.57900E-001	1.37630E-008	-3.56203E-008	4.93833E-008	-1.83000E-001	3.14039E-004	6	..........a	-327.68
	98	9.9	-1.28895E-001	-1.78856E-001	-1.53875E-001	1.45504E-008	-3.45108E-008	4.90612E-008	-1.79000E-001	2.93206E-004	6	..........a	-327.68
	100	10.1	-1.24884E-001	-1.74932E-001	-1.49908E-001	1.53149E-008	-3.34540E-008	4.87689E-008	-1.75000E-001	3.14706E-004	6	..........a	-327.68