Folder: EchemAnalysis_AMA/C-COM1 (part 6)

File: SWV_10Hz STD1 100  fgml 081020_#2.DTA
EXPLAIN
TAG	SQUARE_WAVE
TITLE	LABEL	Square Wave Voltammetry	Test Identifier
DATE	LABEL	8/10/2020	Date
TIME	LABEL	20:03:13	Time
NOTES	NOTES	1	Notes...
	 STD1 100  fg/mL 08102
PSTAT	PSTAT	REF600-24079	Potentiostat
VINIT	QUANT	-3.50000E-001	Initial E (V)
VFINAL	QUANT	-1.50000E-001	Final E (V)
STEPSIZE	QUANT	2.00000E+000	Step Size (mV)
TIMERRES	QUANT	3.33340E-005	&Timer Resolution
FREQUENCY	QUANT	1.00000E+001	Frequency (Hz)
PULSESIZE	QUANT	2.50000E+001	Pulse Size E (mV)
PULSEON	QUANT	1.00000E-001	Pulse &Time (s)
NOISEREJECT	TOGGLE	F	Noise Rejection
AREA	QUANT	2.00000E-002	Sample Area (cm^2)
IMODE	SELECTOR	1	I/E Range Mode
IRANGE	QUANT	1.00000E-003	Max Current (mA)
EQDELAY	IQUANT	10	Equil. Time (s)
IRCOMP	SELECTOR	0	IRComp
PFCOR	QUANT	5.00000E+001	PF Corr. (ohm)
CYCLES	IQUANT	101	C&ycles (#)
ELECTRODETYPE	SELECTOR	0	Electrode Type
STRIPPING	TOGGLE	F	Used for Stripping
POLARITY	TOGGLE	F	Signal Polarity
LINEFREQ	IQUANT	60	Line Frequency (Hz)
INTPERIOD	QUANT	3.3334E-005	Integration Period (s)
SEQUENCER	TOGGLE	TRUE	Run as Sequence
PSTATMODEL	IQUANT	4	Pstat Model
PSTATSECTION	LABEL	REF600-24079	Pstat Section
PSTATSERIALNO	LABEL	24079	Pstat Serial Number
CTRLMODE	IQUANT	1	Control Mode
ELECTROMETER	IQUANT	0	RE=0 or CS=1
IESTAB	IQUANT	2	I/E Stability
CASPEED	IQUANT	6	Control Amp Speed
CONVENTION	IQUANT	1	Current Convention
ICHRANGE	IQUANT	2	Ich Range
ICHRANGEMODE	TOGGLE	F	Ich Auto Range
ICHOFFSETENABLE	TOGGLE	F	Ich Offset Enable
ICHOFFSET	QUANT	0	Ich Offset (V)
ICHFILTER	IQUANT	2	Ich Filter
VCHRANGE	IQUANT	2	Vch Range
VCHRANGEMODE	TOGGLE	F	Vch Auto Range
VCHOFFSETENABLE	TOGGLE	F	Vch Offset Enable
VCHOFFSET	QUANT	0	Vch Offset (V)
VCHFILTER	IQUANT	2	Vch Filter
ACHRANGE	IQUANT	2	Ach Range
ACHOFFSETENABLE	TOGGLE	F	Ach Offset Enable
ACHOFFSET	QUANT	0	Ach Offset (V)
ACHFILTER	IQUANT	1	Ach Filter
IERANGELOWERLIMIT	IQUANT	1	I/E Range Lower Limit
IERANGEMODE	TOGGLE	F	I/E AutoRange
IERANGE	IQUANT	6	I/E Range
POSFEEDENABLE	TOGGLE	F	Positive Feedback IR Comp
POSFEEDRESISTANCE	QUANT	0	Positive Feedback Resistance (ohm)
ACHSELECT	IQUANT	0	Ach Select
SENSECABLEID	IQUANT	13	Sense Cable ID
PWRCABLEID	IQUANT	13	Power Cable ID
DCCALDATE	LABEL	6/30/2020	DC Calibration Date
ACCALDATE	LABEL	6/30/2020	AC Calibration Date
THERMOSELECT	IQUANT	1	Thermo Select
FRAMEWORKVERSION	LABEL	7.8.2	Framework Version
INSTRUMENTVERSION	LABEL	4.40	Instrument Version
CURVE	TABLE	101
	Pt	T	Vfwd	Vrev	Vstep	Ifwd	Irev	Idif	Sig	Ach	IERange	Over	Temp
	#	s	V	V	V	A	A	A	V	V	#	bits	deg C
	0	0.1	-3.25064E-001	-3.74981E-001	-3.50022E-001	-1.84091E-007	-3.72500E-007	1.88409E-007	-3.75000E-001	4.14039E-004	6	..........a	-327.68
	2	0.3	-3.21009E-001	-3.70951E-001	-3.45980E-001	-1.61874E-007	-3.48907E-007	1.87033E-007	-3.71000E-001	4.10706E-004	6	..........a	-327.68
	4	0.5	-3.17114E-001	-3.67024E-001	-3.42069E-001	-1.51346E-007	-3.30463E-007	1.79117E-007	-3.67000E-001	4.16039E-004	6	..........a	-327.68
	6	0.7	-3.13095E-001	-3.62937E-001	-3.38016E-001	-1.42091E-007	-3.13709E-007	1.71618E-007	-3.63000E-001	4.16539E-004	6	..........a	-327.68
	8	0.9	-3.09082E-001	-3.59011E-001	-3.34047E-001	-1.33420E-007	-2.97977E-007	1.64557E-007	-3.59000E-001	4.13373E-004	6	..........a	-327.68
	10	1.1	-3.05105E-001	-3.54956E-001	-3.30030E-001	-1.24901E-007	-2.83062E-007	1.58161E-007	-3.55000E-001	4.17206E-004	6	..........a	-327.68
	12	1.3	-3.01074E-001	-3.50973E-001	-3.26023E-001	-1.17027E-007	-2.68831E-007	1.51804E-007	-3.51000E-001	4.12873E-004	6	..........a	-327.68
	14	1.5	-2.97036E-001	-3.46989E-001	-3.22012E-001	-1.09501E-007	-2.55899E-007	1.46399E-007	-3.47000E-001	4.10706E-004	6	..........a	-327.68
	16	1.7	-2.93088E-001	-3.43011E-001	-3.18049E-001	-1.02224E-007	-2.43226E-007	1.41002E-007	-3.43000E-001	4.14706E-004	6	..........a	-327.68
	18	1.9	-2.89111E-001	-3.38944E-001	-3.14027E-001	-9.56749E-008	-2.31344E-007	1.35669E-007	-3.39000E-001	4.08873E-004	6	..........a	-327.68
	20	2.1	-2.85084E-001	-3.35005E-001	-3.10045E-001	-8.90597E-008	-2.20024E-007	1.30964E-007	-3.35000E-001	4.15039E-004	6	..........a	-327.68
	22	2.3	-2.81117E-001	-3.30949E-001	-3.06033E-001	-8.26689E-008	-2.09077E-007	1.26408E-007	-3.31000E-001	4.17873E-004	6	..........a	-327.68
	24	2.5	-2.77072E-001	-3.27022E-001	-3.02047E-001	-7.68385E-008	-1.99038E-007	1.22200E-007	-3.27000E-001	4.16206E-004	6	..........a	-327.68
	26	2.7	-2.73046E-001	-3.22970E-001	-2.98008E-001	-7.10938E-008	-1.89440E-007	1.18346E-007	-3.23000E-001	4.07373E-004	6	..........a	-327.68
	28	2.9	-2.69008E-001	-3.19007E-001	-2.94007E-001	-6.54497E-008	-1.80019E-007	1.14570E-007	-3.19000E-001	4.14373E-004	6	..........a	-327.68
	30	3.1	-2.65122E-001	-3.14966E-001	-2.90044E-001	-6.03078E-008	-1.71190E-007	1.10882E-007	-3.15000E-001	4.21039E-004	6	..........a	-327.68
	32	3.3	-2.61070E-001	-3.10986E-001	-2.86028E-001	-5.52841E-008	-1.62853E-007	1.07569E-007	-3.11000E-001	4.21373E-004	6	..........a	-327.68
	34	3.5	-2.57097E-001	-3.06976E-001	-2.82037E-001	-5.03855E-008	-1.54761E-007	1.04376E-007	-3.07000E-001	4.16539E-004	6	..........a	-327.68
	36	3.7	-2.53096E-001	-3.03042E-001	-2.78069E-001	-4.60243E-008	-1.47330E-007	1.01305E-007	-3.03000E-001	4.16706E-004	6	..........a	-327.68
	38	3.9	-2.49080E-001	-2.98984E-001	-2.74032E-001	-4.18527E-008	-1.40147E-007	9.82942E-008	-2.99000E-001	4.18039E-004	6	..........a	-327.68
	40	4.1	-2.45054E-001	-2.94992E-001	-2.70023E-001	-3.77989E-008	-1.33193E-007	9.53945E-008	-2.95000E-001	4.12873E-004	6	..........a	-327.68
	42	4.3	-2.41120E-001	-2.90945E-001	-2.66033E-001	-3.38154E-008	-1.26697E-007	9.28815E-008	-2.91000E-001	4.18206E-004	6	..........a	-327.68
	44	4.5	-2.37065E-001	-2.86993E-001	-2.62029E-001	-3.01039E-008	-1.20660E-007	9.05565E-008	-2.87000E-001	4.17539E-004	6	..........a	-327.68
	46	4.7	-2.33101E-001	-2.82953E-001	-2.58027E-001	-2.67808E-008	-1.14943E-007	8.81622E-008	-2.83000E-001	4.19706E-004	6	..........a	-327.68
	48	4.9	-2.29113E-001	-2.79015E-001	-2.54064E-001	-2.37034E-008	-1.09114E-007	8.54105E-008	-2.79000E-001	4.22706E-004	6	..........a	-327.68
	50	5.1	-2.25096E-001	-2.74982E-001	-2.50039E-001	-2.06060E-008	-1.03920E-007	8.33136E-008	-2.75000E-001	4.17039E-004	6	..........a	-327.68
	52	5.3	-2.21077E-001	-2.71012E-001	-2.46044E-001	-1.78694E-008	-9.89460E-008	8.10766E-008	-2.71000E-001	4.20206E-004	6	..........a	-327.68
	54	5.5	-2.17135E-001	-2.66933E-001	-2.42034E-001	-1.52400E-008	-9.41647E-008	7.89247E-008	-2.67000E-001	4.24539E-004	6	..........a	-327.68
	56	5.7	-2.13078E-001	-2.63026E-001	-2.38052E-001	-1.29044E-008	-8.94785E-008	7.65741E-008	-2.63000E-001	4.11206E-004	6	..........a	-327.68
	58	5.9	-2.09102E-001	-2.58957E-001	-2.34029E-001	-1.03731E-008	-8.51836E-008	7.48105E-008	-2.59000E-001	4.14206E-004	6	..........a	-327.68
	60	6.1	-2.05090E-001	-2.54993E-001	-2.30041E-001	-7.87942E-009	-8.08220E-008	7.29426E-008	-2.55000E-001	4.03373E-004	6	..........a	-327.68
	62	6.3	-2.01100E-001	-2.50974E-001	-2.26037E-001	-5.85483E-009	-7.70272E-008	7.11724E-008	-2.51000E-001	4.18039E-004	6	..........a	-327.68
	64	6.5	-1.97071E-001	-2.46971E-001	-2.22021E-001	-3.77456E-009	-7.34601E-008	6.96855E-008	-2.47000E-001	4.11539E-004	6	..........a	-327.68
	66	6.7	-1.93062E-001	-2.42960E-001	-2.18011E-001	-1.96900E-009	-6.97210E-008	6.77520E-008	-2.43000E-001	4.19373E-004	6	..........a	-327.68
	68	6.9	-1.89116E-001	-2.39006E-001	-2.14061E-001	-1.01430E-010	-6.65165E-008	6.64151E-008	-2.39000E-001	4.19706E-004	6	..........a	-327.68
	70	7.1	-1.85112E-001	-2.34945E-001	-2.10028E-001	1.64079E-009	-6.33725E-008	6.50133E-008	-2.35000E-001	4.23206E-004	6	..........a	-327.68
	72	7.3	-1.81107E-001	-2.30985E-001	-2.06046E-001	2.99930E-009	-6.05165E-008	6.35158E-008	-2.31000E-001	4.17039E-004	6	..........a	-327.68
	74	7.5	-1.77103E-001	-2.26965E-001	-2.02034E-001	4.46415E-009	-5.75374E-008	6.20016E-008	-2.27000E-001	4.13706E-004	6	..........a	-327.68
	76	7.7	-1.73101E-001	-2.22971E-001	-1.98036E-001	5.76432E-009	-5.49984E-008	6.07627E-008	-2.23000E-001	4.19373E-004	6	..........a	-327.68
	78	7.9	-1.69093E-001	-2.18991E-001	-1.94042E-001	7.11549E-009	-5.22947E-008	5.94102E-008	-2.19000E-001	4.20539E-004	6	..........a	-327.68
	80	8.1	-1.64994E-001	-2.14993E-001	-1.89993E-001	8.49966E-009	-5.01165E-008	5.86161E-008	-2.15000E-001	4.16706E-004	6	..........a	-327.68
	82	8.3	-1.61119E-001	-2.10978E-001	-1.86049E-001	9.68648E-009	-4.81185E-008	5.78050E-008	-2.11000E-001	4.12373E-004	6	..........a	-327.68
	84	8.5	-1.57097E-001	-2.07002E-001	-1.82050E-001	1.09400E-008	-4.61303E-008	5.70703E-008	-2.07000E-001	4.04039E-004	6	..........a	-327.68
	86	8.7	-1.53117E-001	-2.02963E-001	-1.78040E-001	1.19664E-008	-4.43001E-008	5.62665E-008	-2.03000E-001	4.08539E-004	6	..........a	-327.68
	88	8.9	-1.49112E-001	-1.99020E-001	-1.74066E-001	1.32916E-008	-4.24268E-008	5.57184E-008	-1.99000E-001	4.20206E-004	6	..........a	-327.68
	90	9.1	-1.45089E-001	-1.94981E-001	-1.70035E-001	1.42714E-008	-4.07303E-008	5.50017E-008	-1.95000E-001	4.04039E-004	6	..........a	-327.68
	92	9.3	-1.41094E-001	-1.91088E-001	-1.66091E-001	1.52719E-008	-3.90727E-008	5.43446E-008	-1.91000E-001	4.11373E-004	6	..........a	-327.68
	94	9.5	-1.37127E-001	-1.86931E-001	-1.62029E-001	1.59970E-008	-3.75795E-008	5.35765E-008	-1.87000E-001	4.07539E-004	6	..........a	-327.68
	96	9.7	-1.33078E-001	-1.83047E-001	-1.58062E-001	1.70191E-008	-3.60213E-008	5.30404E-008	-1.83000E-001	4.18206E-004	6	..........a	-327.68
	98	9.9	-1.29100E-001	-1.78949E-001	-1.54024E-001	1.78722E-008	-3.48385E-008	5.27107E-008	-1.79000E-001	4.07206E-004	6	..........a	-327.68
	100	10.1	-1.25108E-001	-1.75047E-001	-1.50078E-001	1.87660E-008	-3.35840E-008	5.23500E-008	-1.75000E-001	4.11873E-004	6	..........a	-327.68

File: SWV_10Hz STD1 100  fgml 081020_#7.DTA
EXPLAIN
TAG	SQUARE_WAVE
TITLE	LABEL	Square Wave Voltammetry	Test Identifier
DATE	LABEL	8/10/2020	Date
TIME	LABEL	20:04:55	Time
NOTES	NOTES	1	Notes...
	 STD1 100  fg/mL 08102
PSTAT	PSTAT	REF600-24079	Potentiostat
VINIT	QUANT	-3.50000E-001	Initial E (V)
VFINAL	QUANT	-1.50000E-001	Final E (V)
STEPSIZE	QUANT	2.00000E+000	Step Size (mV)
TIMERRES	QUANT	3.33340E-005	&Timer Resolution
FREQUENCY	QUANT	1.00000E+001	Frequency (Hz)
PULSESIZE	QUANT	2.50000E+001	Pulse Size E (mV)
PULSEON	QUANT	1.00000E-001	Pulse &Time (s)
NOISEREJECT	TOGGLE	F	Noise Rejection
AREA	QUANT	2.00000E-002	Sample Area (cm^2)
IMODE	SELECTOR	1	I/E Range Mode
IRANGE	QUANT	1.00000E-003	Max Current (mA)
EQDELAY	IQUANT	10	Equil. Time (s)
IRCOMP	SELECTOR	0	IRComp
PFCOR	QUANT	5.00000E+001	PF Corr. (ohm)
CYCLES	IQUANT	101	C&ycles (#)
ELECTRODETYPE	SELECTOR	0	Electrode Type
STRIPPING	TOGGLE	F	Used for Stripping
POLARITY	TOGGLE	F	Signal Polarity
LINEFREQ	IQUANT	60	Line Frequency (Hz)
INTPERIOD	QUANT	3.3334E-005	Integration Period (s)
SEQUENCER	TOGGLE	TRUE	Run as Sequence
PSTATMODEL	IQUANT	4	Pstat Model
PSTATSECTION	LABEL	REF600-24079	Pstat Section
PSTATSERIALNO	LABEL	24079	Pstat Serial Number
CTRLMODE	IQUANT	1	Control Mode
ELECTROMETER	IQUANT	0	RE=0 or CS=1
IESTAB	IQUANT	2	I/E Stability
CASPEED	IQUANT	6	Control Amp Speed
CONVENTION	IQUANT	1	Current Convention
ICHRANGE	IQUANT	2	Ich Range
ICHRANGEMODE	TOGGLE	F	Ich Auto Range
ICHOFFSETENABLE	TOGGLE	F	Ich Offset Enable
ICHOFFSET	QUANT	0	Ich Offset (V)
ICHFILTER	IQUANT	2	Ich Filter
VCHRANGE	IQUANT	2	Vch Range
VCHRANGEMODE	TOGGLE	F	Vch Auto Range
VCHOFFSETENABLE	TOGGLE	F	Vch Offset Enable
VCHOFFSET	QUANT	0	Vch Offset (V)
VCHFILTER	IQUANT	2	Vch Filter
ACHRANGE	IQUANT	2	Ach Range
ACHOFFSETENABLE	TOGGLE	F	Ach Offset Enable
ACHOFFSET	QUANT	0	Ach Offset (V)
ACHFILTER	IQUANT	1	Ach Filter
IERANGELOWERLIMIT	IQUANT	1	I/E Range Lower Limit
IERANGEMODE	TOGGLE	F	I/E AutoRange
IERANGE	IQUANT	6	I/E Range
POSFEEDENABLE	TOGGLE	F	Positive Feedback IR Comp
POSFEEDRESISTANCE	QUANT	0	Positive Feedback Resistance (ohm)
ACHSELECT	IQUANT	0	Ach Select
SENSECABLEID	IQUANT	13	Sense Cable ID
PWRCABLEID	IQUANT	13	Power Cable ID
DCCALDATE	LABEL	6/30/2020	DC Calibration Date
ACCALDATE	LABEL	6/30/2020	AC Calibration Date
THERMOSELECT	IQUANT	1	Thermo Select
FRAMEWORKVERSION	LABEL	7.8.2	Framework Version
INSTRUMENTVERSION	LABEL	4.40	Instrument Version
CURVE	TABLE	101
	Pt	T	Vfwd	Vrev	Vstep	Ifwd	Irev	Idif	Sig	Ach	IERange	Over	Temp
	#	s	V	V	V	A	A	A	V	V	#	bits	deg C
	0	0.1	-3.24992E-001	-3.74940E-001	-3.49966E-001	-1.63752E-007	-3.22789E-007	1.59038E-007	-3.75000E-001	4.23539E-004	6	..........a	-327.68
	2	0.3	-3.20991E-001	-3.70878E-001	-3.45934E-001	-1.42795E-007	-3.03671E-007	1.60876E-007	-3.71000E-001	4.14373E-004	6	..........a	-327.68
	4	0.5	-3.17034E-001	-3.66989E-001	-3.42011E-001	-1.33985E-007	-2.88898E-007	1.54912E-007	-3.67000E-001	3.94539E-004	6	..........a	-327.68
	6	0.7	-3.13048E-001	-3.62880E-001	-3.37964E-001	-1.26205E-007	-2.75762E-007	1.49557E-007	-3.63000E-001	4.25206E-004	6	..........a	-327.68
	8	0.9	-3.08995E-001	-3.58907E-001	-3.33951E-001	-1.18739E-007	-2.63260E-007	1.44521E-007	-3.59000E-001	4.19039E-004	6	..........a	-327.68
	10	1.1	-3.05058E-001	-3.54927E-001	-3.29992E-001	-1.11601E-007	-2.51405E-007	1.39804E-007	-3.55000E-001	4.23706E-004	6	..........a	-327.68
	12	1.3	-3.01038E-001	-3.50947E-001	-3.25992E-001	-1.05133E-007	-2.40134E-007	1.35000E-007	-3.51000E-001	4.10373E-004	6	..........a	-327.68
	14	1.5	-2.97034E-001	-3.46936E-001	-3.21985E-001	-9.85996E-008	-2.29067E-007	1.30468E-007	-3.47000E-001	4.12539E-004	6	..........a	-327.68
	16	1.7	-2.92954E-001	-3.42894E-001	-3.17924E-001	-9.22888E-008	-2.19073E-007	1.26784E-007	-3.43000E-001	4.18706E-004	6	..........a	-327.68
	18	1.9	-2.89083E-001	-3.38875E-001	-3.13979E-001	-8.63031E-008	-2.08892E-007	1.22589E-007	-3.39000E-001	4.07039E-004	6	..........a	-327.68
	20	2.1	-2.85036E-001	-3.34945E-001	-3.09990E-001	-8.04440E-008	-1.99674E-007	1.19230E-007	-3.35000E-001	4.12373E-004	6	..........a	-327.68
	22	2.3	-2.81099E-001	-3.30911E-001	-3.06005E-001	-7.49723E-008	-1.90686E-007	1.15714E-007	-3.31000E-001	4.12039E-004	6	..........a	-327.68
	24	2.5	-2.77024E-001	-3.26942E-001	-3.01983E-001	-6.97733E-008	-1.81774E-007	1.12001E-007	-3.27000E-001	4.17539E-004	6	..........a	-327.68
	26	2.7	-2.72987E-001	-3.22961E-001	-2.97974E-001	-6.43539E-008	-1.73373E-007	1.09020E-007	-3.23000E-001	4.15039E-004	6	..........a	-327.68
	28	2.9	-2.68954E-001	-3.18892E-001	-2.93923E-001	-5.99884E-008	-1.65569E-007	1.05580E-007	-3.19000E-001	4.24206E-004	6	..........a	-327.68
	30	3.1	-2.65083E-001	-3.14906E-001	-2.89994E-001	-5.48707E-008	-1.57951E-007	1.03080E-007	-3.15000E-001	4.17039E-004	6	..........a	-327.68
	32	3.3	-2.61038E-001	-3.10937E-001	-2.85988E-001	-5.06202E-008	-1.50649E-007	1.00029E-007	-3.11000E-001	4.06873E-004	6	..........a	-327.68
	34	3.5	-2.57054E-001	-3.06926E-001	-2.81990E-001	-4.63867E-008	-1.43693E-007	9.73064E-008	-3.07000E-001	4.07206E-004	6	..........a	-327.68
	36	3.7	-2.53039E-001	-3.02989E-001	-2.78014E-001	-4.23921E-008	-1.37001E-007	9.46090E-008	-3.03000E-001	4.04873E-004	6	..........a	-327.68
	38	3.9	-2.49021E-001	-2.98949E-001	-2.73985E-001	-3.83876E-008	-1.30768E-007	9.23801E-008	-2.99000E-001	4.06206E-004	6	..........a	-327.68
	40	4.1	-2.44976E-001	-2.94937E-001	-2.69957E-001	-3.45782E-008	-1.24603E-007	9.00248E-008	-2.95000E-001	4.09206E-004	6	..........a	-327.68
	42	4.3	-2.41112E-001	-2.90871E-001	-2.65991E-001	-3.10464E-008	-1.18961E-007	8.79145E-008	-2.91000E-001	4.11873E-004	6	..........a	-327.68
	44	4.5	-2.37004E-001	-2.86933E-001	-2.61969E-001	-2.77396E-008	-1.13166E-007	8.54269E-008	-2.87000E-001	4.15039E-004	6	..........a	-327.68
	46	4.7	-2.33045E-001	-2.82902E-001	-2.57974E-001	-2.47849E-008	-1.08103E-007	8.33179E-008	-2.83000E-001	4.26539E-004	6	..........a	-327.68
	48	4.9	-2.29059E-001	-2.78950E-001	-2.54004E-001	-2.17915E-008	-1.03156E-007	8.13643E-008	-2.79000E-001	4.18873E-004	6	..........a	-327.68
	50	5.1	-2.25041E-001	-2.74940E-001	-2.49991E-001	-1.89802E-008	-9.85613E-008	7.95811E-008	-2.75000E-001	4.13206E-004	6	..........a	-327.68
	52	5.3	-2.20993E-001	-2.70957E-001	-2.45975E-001	-1.61931E-008	-9.36983E-008	7.75052E-008	-2.71000E-001	4.13706E-004	6	..........a	-327.68
	54	5.5	-2.17121E-001	-2.66846E-001	-2.41983E-001	-1.40135E-008	-8.92718E-008	7.52582E-008	-2.67000E-001	4.03539E-004	6	..........a	-327.68
	56	5.7	-2.13010E-001	-2.62938E-001	-2.37974E-001	-1.14665E-008	-8.52979E-008	7.38314E-008	-2.63000E-001	4.05539E-004	6	..........a	-327.68
	58	5.9	-2.09057E-001	-2.58893E-001	-2.33975E-001	-9.08991E-009	-8.13458E-008	7.22559E-008	-2.59000E-001	4.15206E-004	6	..........a	-327.68
	60	6.1	-2.05033E-001	-2.54949E-001	-2.29991E-001	-7.13199E-009	-7.73503E-008	7.02183E-008	-2.55000E-001	4.15206E-004	6	..........a	-327.68
	62	6.3	-2.01060E-001	-2.50938E-001	-2.25999E-001	-4.97072E-009	-7.37258E-008	6.87551E-008	-2.51000E-001	4.16373E-004	6	..........a	-327.68
	64	6.5	-1.97023E-001	-2.46926E-001	-2.21974E-001	-3.05314E-009	-7.03770E-008	6.73239E-008	-2.47000E-001	4.16373E-004	6	..........a	-327.68
	66	6.7	-1.93008E-001	-2.42848E-001	-2.17928E-001	-1.32325E-009	-6.69629E-008	6.56397E-008	-2.43000E-001	4.19373E-004	6	..........a	-327.68
	68	6.9	-1.89045E-001	-2.38912E-001	-2.13978E-001	5.83658E-010	-6.38712E-008	6.44549E-008	-2.39000E-001	4.24039E-004	6	..........a	-327.68
	70	7.1	-1.85062E-001	-2.34879E-001	-2.09970E-001	2.34488E-009	-6.10942E-008	6.34391E-008	-2.35000E-001	4.19539E-004	6	..........a	-327.68
	72	7.3	-1.81051E-001	-2.30900E-001	-2.05975E-001	3.78040E-009	-5.80541E-008	6.18345E-008	-2.31000E-001	4.08706E-004	6	..........a	-327.68
	74	7.5	-1.77078E-001	-2.26920E-001	-2.01999E-001	5.13457E-009	-5.54755E-008	6.06101E-008	-2.27000E-001	4.09873E-004	6	..........a	-327.68
	76	7.7	-1.73064E-001	-2.22922E-001	-1.97993E-001	6.70377E-009	-5.27985E-008	5.95022E-008	-2.23000E-001	4.19706E-004	6	..........a	-327.68
	78	7.9	-1.69038E-001	-2.18945E-001	-1.93991E-001	7.83625E-009	-5.06342E-008	5.84704E-008	-2.19000E-001	4.04539E-004	6	..........a	-327.68
	80	8.1	-1.64875E-001	-2.14883E-001	-1.89879E-001	9.36844E-009	-4.84566E-008	5.78250E-008	-2.15000E-001	3.99039E-004	6	..........a	-327.68
	82	8.3	-1.61055E-001	-2.10923E-001	-1.85989E-001	1.04039E-008	-4.62676E-008	5.66715E-008	-2.11000E-001	3.94373E-004	6	..........a	-327.68
	84	8.5	-1.57035E-001	-2.06915E-001	-1.81975E-001	1.17244E-008	-4.43524E-008	5.60768E-008	-2.07000E-001	4.01373E-004	6	..........a	-327.68
	86	8.7	-1.53100E-001	-2.02924E-001	-1.78012E-001	1.28802E-008	-4.25328E-008	5.54131E-008	-2.03000E-001	3.96206E-004	6	..........a	-327.68
	88	8.9	-1.49048E-001	-1.98955E-001	-1.74001E-001	1.39640E-008	-4.07803E-008	5.47443E-008	-1.99000E-001	4.01039E-004	6	..........a	-327.68
	90	9.1	-1.45020E-001	-1.94935E-001	-1.69977E-001	1.50808E-008	-3.89650E-008	5.40459E-008	-1.95000E-001	4.01039E-004	6	..........a	-327.68
	92	9.3	-1.41014E-001	-1.91017E-001	-1.66015E-001	1.61883E-008	-3.73285E-008	5.35168E-008	-1.91000E-001	3.84039E-004	6	..........a	-327.68
	94	9.5	-1.37080E-001	-1.86874E-001	-1.61977E-001	1.69251E-008	-3.58270E-008	5.27520E-008	-1.87000E-001	3.82873E-004	6	..........a	-327.68
	96	9.7	-1.33047E-001	-1.82951E-001	-1.57999E-001	1.79365E-008	-3.46955E-008	5.26320E-008	-1.83000E-001	3.94539E-004	6	..........a	-327.68
	98	9.9	-1.29056E-001	-1.78911E-001	-1.53984E-001	1.88897E-008	-3.31880E-008	5.20776E-008	-1.79000E-001	3.98206E-004	6	..........a	-327.68
	100	10.1	-1.25068E-001	-1.74975E-001	-1.50021E-001	1.96554E-008	-3.21045E-008	5.17599E-008	-1.75000E-001	3.96206E-004	6	..........a	-327.68