Folder: EchemAnalysis_AMA/C-COM3 (part 7)

File: SWV_10Hz STD3 100  fgml 081020_#6.DTA
EXPLAIN
TAG	SQUARE_WAVE
TITLE	LABEL	Square Wave Voltammetry	Test Identifier
DATE	LABEL	8/10/2020	Date
TIME	LABEL	20:25:46	Time
NOTES	NOTES	1	Notes...
	 STD3 100  fg/mL 08102
PSTAT	PSTAT	REF600-24079	Potentiostat
VINIT	QUANT	-3.50000E-001	Initial E (V)
VFINAL	QUANT	-1.50000E-001	Final E (V)
STEPSIZE	QUANT	2.00000E+000	Step Size (mV)
TIMERRES	QUANT	3.33340E-005	&Timer Resolution
FREQUENCY	QUANT	1.00000E+001	Frequency (Hz)
PULSESIZE	QUANT	2.50000E+001	Pulse Size E (mV)
PULSEON	QUANT	1.00000E-001	Pulse &Time (s)
NOISEREJECT	TOGGLE	F	Noise Rejection
AREA	QUANT	2.00000E-002	Sample Area (cm^2)
IMODE	SELECTOR	1	I/E Range Mode
IRANGE	QUANT	1.00000E-003	Max Current (mA)
EQDELAY	IQUANT	10	Equil. Time (s)
IRCOMP	SELECTOR	0	IRComp
PFCOR	QUANT	5.00000E+001	PF Corr. (ohm)
CYCLES	IQUANT	101	C&ycles (#)
ELECTRODETYPE	SELECTOR	0	Electrode Type
STRIPPING	TOGGLE	F	Used for Stripping
POLARITY	TOGGLE	F	Signal Polarity
LINEFREQ	IQUANT	60	Line Frequency (Hz)
INTPERIOD	QUANT	3.3334E-005	Integration Period (s)
SEQUENCER	TOGGLE	TRUE	Run as Sequence
PSTATMODEL	IQUANT	4	Pstat Model
PSTATSECTION	LABEL	REF600-24079	Pstat Section
PSTATSERIALNO	LABEL	24079	Pstat Serial Number
CTRLMODE	IQUANT	1	Control Mode
ELECTROMETER	IQUANT	0	RE=0 or CS=1
IESTAB	IQUANT	2	I/E Stability
CASPEED	IQUANT	6	Control Amp Speed
CONVENTION	IQUANT	1	Current Convention
ICHRANGE	IQUANT	2	Ich Range
ICHRANGEMODE	TOGGLE	F	Ich Auto Range
ICHOFFSETENABLE	TOGGLE	F	Ich Offset Enable
ICHOFFSET	QUANT	0	Ich Offset (V)
ICHFILTER	IQUANT	2	Ich Filter
VCHRANGE	IQUANT	2	Vch Range
VCHRANGEMODE	TOGGLE	F	Vch Auto Range
VCHOFFSETENABLE	TOGGLE	F	Vch Offset Enable
VCHOFFSET	QUANT	0	Vch Offset (V)
VCHFILTER	IQUANT	2	Vch Filter
ACHRANGE	IQUANT	2	Ach Range
ACHOFFSETENABLE	TOGGLE	F	Ach Offset Enable
ACHOFFSET	QUANT	0	Ach Offset (V)
ACHFILTER	IQUANT	1	Ach Filter
IERANGELOWERLIMIT	IQUANT	1	I/E Range Lower Limit
IERANGEMODE	TOGGLE	F	I/E AutoRange
IERANGE	IQUANT	6	I/E Range
POSFEEDENABLE	TOGGLE	F	Positive Feedback IR Comp
POSFEEDRESISTANCE	QUANT	0	Positive Feedback Resistance (ohm)
ACHSELECT	IQUANT	0	Ach Select
SENSECABLEID	IQUANT	13	Sense Cable ID
PWRCABLEID	IQUANT	13	Power Cable ID
DCCALDATE	LABEL	6/30/2020	DC Calibration Date
ACCALDATE	LABEL	6/30/2020	AC Calibration Date
THERMOSELECT	IQUANT	1	Thermo Select
FRAMEWORKVERSION	LABEL	7.8.2	Framework Version
INSTRUMENTVERSION	LABEL	4.40	Instrument Version
CURVE	TABLE	101
	Pt	T	Vfwd	Vrev	Vstep	Ifwd	Irev	Idif	Sig	Ach	IERange	Over	Temp
	#	s	V	V	V	A	A	A	V	V	#	bits	deg C
	0	0.1	-3.24887E-001	-3.74906E-001	-3.49896E-001	-1.05309E-007	-2.11630E-007	1.06321E-007	-3.75000E-001	3.99706E-004	6	..........a	-327.68
	2	0.3	-3.20891E-001	-3.70771E-001	-3.45831E-001	-8.60540E-008	-1.98105E-007	1.12051E-007	-3.71000E-001	3.75539E-004	6	..........a	-327.68
	4	0.5	-3.16900E-001	-3.66956E-001	-3.41928E-001	-8.04877E-008	-1.89661E-007	1.09173E-007	-3.67000E-001	3.92039E-004	6	..........a	-327.68
	6	0.7	-3.12899E-001	-3.62824E-001	-3.37862E-001	-7.52930E-008	-1.81266E-007	1.05973E-007	-3.63000E-001	3.86206E-004	6	..........a	-327.68
	8	0.9	-3.08869E-001	-3.58881E-001	-3.33875E-001	-7.07438E-008	-1.73835E-007	1.03091E-007	-3.59000E-001	4.06039E-004	6	..........a	-327.68
	10	1.1	-3.04897E-001	-3.54845E-001	-3.29871E-001	-6.62165E-008	-1.66494E-007	1.00277E-007	-3.55000E-001	4.09873E-004	6	..........a	-327.68
	12	1.3	-3.00898E-001	-3.50900E-001	-3.25899E-001	-6.20716E-008	-1.59347E-007	9.72750E-008	-3.51000E-001	4.10373E-004	6	..........a	-327.68
	14	1.5	-2.96879E-001	-3.46883E-001	-3.21881E-001	-5.78731E-008	-1.52728E-007	9.48544E-008	-3.47000E-001	3.99039E-004	6	..........a	-327.68
	16	1.7	-2.92762E-001	-3.42918E-001	-3.17840E-001	-5.37369E-008	-1.46272E-007	9.25354E-008	-3.43000E-001	4.00039E-004	6	..........a	-327.68
	18	1.9	-2.88921E-001	-3.38858E-001	-3.13890E-001	-4.98854E-008	-1.40208E-007	9.03222E-008	-3.39000E-001	3.97873E-004	6	..........a	-327.68
	20	2.1	-2.84888E-001	-3.34897E-001	-3.09893E-001	-4.64183E-008	-1.34163E-007	8.77445E-008	-3.35000E-001	3.92206E-004	6	..........a	-327.68
	22	2.3	-2.80915E-001	-3.30824E-001	-3.05870E-001	-4.26498E-008	-1.28508E-007	8.58586E-008	-3.31000E-001	3.98373E-004	6	..........a	-327.68
	24	2.5	-2.76877E-001	-3.26920E-001	-3.01899E-001	-3.94018E-008	-1.23129E-007	8.37276E-008	-3.27000E-001	3.88206E-004	6	..........a	-327.68
	26	2.7	-2.72892E-001	-3.22884E-001	-2.97888E-001	-3.58283E-008	-1.17813E-007	8.19851E-008	-3.23000E-001	3.94539E-004	6	..........a	-327.68
	28	2.9	-2.68901E-001	-3.18930E-001	-2.93915E-001	-3.25829E-008	-1.12858E-007	8.02755E-008	-3.19000E-001	3.88039E-004	6	..........a	-327.68
	30	3.1	-2.64917E-001	-3.14897E-001	-2.89907E-001	-2.96159E-008	-1.08061E-007	7.84450E-008	-3.15000E-001	3.86373E-004	6	..........a	-327.68
	32	3.3	-2.60862E-001	-3.10895E-001	-2.85878E-001	-2.64568E-008	-1.03516E-007	7.70595E-008	-3.11000E-001	3.85373E-004	6	..........a	-327.68
	34	3.5	-2.56866E-001	-3.06846E-001	-2.81856E-001	-2.37041E-008	-9.94794E-008	7.57753E-008	-3.07000E-001	3.80206E-004	6	..........a	-327.68
	36	3.7	-2.52893E-001	-3.02927E-001	-2.77910E-001	-2.13228E-008	-9.54476E-008	7.41248E-008	-3.03000E-001	3.98039E-004	6	..........a	-327.68
	38	3.9	-2.48906E-001	-2.98868E-001	-2.73887E-001	-1.85084E-008	-9.14264E-008	7.29179E-008	-2.99000E-001	4.03373E-004	6	..........a	-327.68
	40	4.1	-2.44901E-001	-2.94910E-001	-2.69906E-001	-1.61305E-008	-8.74729E-008	7.13424E-008	-2.95000E-001	4.08873E-004	6	..........a	-327.68
	42	4.3	-2.40891E-001	-2.90848E-001	-2.65870E-001	-1.38412E-008	-8.39101E-008	7.00689E-008	-2.91000E-001	3.96206E-004	6	..........a	-327.68
	44	4.5	-2.36893E-001	-2.86912E-001	-2.61903E-001	-1.17439E-008	-8.05760E-008	6.88321E-008	-2.87000E-001	3.80873E-004	6	..........a	-327.68
	46	4.7	-2.32871E-001	-2.82828E-001	-2.57849E-001	-9.83467E-009	-7.70812E-008	6.72466E-008	-2.83000E-001	4.13539E-004	6	..........a	-327.68
	48	4.9	-2.28862E-001	-2.78909E-001	-2.53885E-001	-8.04244E-009	-7.39708E-008	6.59284E-008	-2.79000E-001	4.04706E-004	6	..........a	-327.68
	50	5.1	-2.24879E-001	-2.74872E-001	-2.49875E-001	-6.11453E-009	-7.09831E-008	6.48686E-008	-2.75000E-001	3.94206E-004	6	..........a	-327.68
	52	5.3	-2.20884E-001	-2.70876E-001	-2.45880E-001	-4.29063E-009	-6.80594E-008	6.37688E-008	-2.71000E-001	4.00539E-004	6	..........a	-327.68
	54	5.5	-2.16889E-001	-2.66783E-001	-2.41836E-001	-2.83011E-009	-6.50410E-008	6.22109E-008	-2.67000E-001	3.93206E-004	6	..........a	-327.68
	56	5.7	-2.12888E-001	-2.62906E-001	-2.37897E-001	-1.32725E-009	-6.22087E-008	6.08814E-008	-2.63000E-001	4.07373E-004	6	..........a	-327.68
	58	5.9	-2.08866E-001	-2.58846E-001	-2.33856E-001	2.16944E-010	-5.95793E-008	5.97963E-008	-2.59000E-001	3.95539E-004	6	..........a	-327.68
	60	6.1	-2.04858E-001	-2.54906E-001	-2.29882E-001	1.63712E-009	-5.74007E-008	5.90379E-008	-2.55000E-001	4.08706E-004	6	..........a	-327.68
	62	6.3	-2.00897E-001	-2.50846E-001	-2.25872E-001	2.74293E-009	-5.48944E-008	5.76373E-008	-2.51000E-001	3.78206E-004	6	..........a	-327.68
	64	6.5	-1.96885E-001	-2.46884E-001	-2.21884E-001	3.60171E-009	-5.22884E-008	5.58901E-008	-2.47000E-001	3.93039E-004	6	..........a	-327.68
	66	6.7	-1.92900E-001	-2.42797E-001	-2.17848E-001	4.78753E-009	-5.03842E-008	5.51717E-008	-2.43000E-001	3.73206E-004	6	..........a	-327.68
	68	6.9	-1.88836E-001	-2.38911E-001	-2.13873E-001	5.77499E-009	-4.82899E-008	5.40649E-008	-2.39000E-001	3.72706E-004	6	..........a	-327.68
	70	7.1	-1.84909E-001	-2.34824E-001	-2.09866E-001	6.98381E-009	-4.65317E-008	5.35155E-008	-2.35000E-001	3.75873E-004	6	..........a	-327.68
	72	7.3	-1.80786E-001	-2.30878E-001	-2.05832E-001	7.92659E-009	-4.46538E-008	5.25804E-008	-2.31000E-001	3.67039E-004	6	..........a	-327.68
	74	7.5	-1.76869E-001	-2.26835E-001	-2.01852E-001	8.74170E-009	-4.27675E-008	5.15092E-008	-2.27000E-001	3.71873E-004	6	..........a	-327.68
	76	7.7	-1.72871E-001	-2.22898E-001	-1.97884E-001	9.84117E-009	-4.11203E-008	5.09615E-008	-2.23000E-001	3.70373E-004	6	..........a	-327.68
	78	7.9	-1.68892E-001	-2.18880E-001	-1.93886E-001	1.07143E-008	-3.95148E-008	5.02291E-008	-2.19000E-001	3.75373E-004	6	..........a	-327.68
	80	8.1	-1.64739E-001	-2.14908E-001	-1.89824E-001	1.14707E-008	-3.81563E-008	4.96270E-008	-2.15000E-001	3.65039E-004	6	..........a	-327.68
	82	8.3	-1.60913E-001	-2.10885E-001	-1.85899E-001	1.24518E-008	-3.65514E-008	4.90032E-008	-2.11000E-001	3.81206E-004	6	..........a	-327.68
	84	8.5	-1.56848E-001	-2.06913E-001	-1.81880E-001	1.32513E-008	-3.54213E-008	4.86725E-008	-2.07000E-001	3.66873E-004	6	..........a	-327.68
	86	8.7	-1.52879E-001	-2.02834E-001	-1.77857E-001	1.39940E-008	-3.42568E-008	4.82508E-008	-2.03000E-001	3.79206E-004	6	..........a	-327.68
	88	8.9	-1.48847E-001	-1.98916E-001	-1.73881E-001	1.45944E-008	-3.30153E-008	4.76097E-008	-1.99000E-001	3.74706E-004	6	..........a	-327.68
	90	9.1	-1.44881E-001	-1.94878E-001	-1.69879E-001	1.55132E-008	-3.21308E-008	4.76441E-008	-1.95000E-001	3.58873E-004	6	..........a	-327.68
	92	9.3	-1.40886E-001	-1.90936E-001	-1.65911E-001	1.61480E-008	-3.09644E-008	4.71123E-008	-1.91000E-001	3.58706E-004	6	..........a	-327.68
	94	9.5	-1.36877E-001	-1.86855E-001	-1.61866E-001	1.68034E-008	-2.99886E-008	4.67920E-008	-1.87000E-001	3.97539E-004	6	..........a	-327.68
	96	9.7	-1.32813E-001	-1.82902E-001	-1.57857E-001	1.74935E-008	-2.89784E-008	4.64719E-008	-1.83000E-001	3.81706E-004	6	..........a	-327.68
	98	9.9	-1.28853E-001	-1.78833E-001	-1.53843E-001	1.79589E-008	-2.81723E-008	4.61312E-008	-1.79000E-001	3.69873E-004	6	..........a	-327.68
	100	10.1	-1.24872E-001	-1.74904E-001	-1.49888E-001	1.86793E-008	-2.73469E-008	4.60262E-008	-1.75000E-001	3.75206E-004	6	..........a	-327.68

File: SWV_10Hz STD3 aptmch 081020_#3.DTA
EXPLAIN
TAG	SQUARE_WAVE
TITLE	LABEL	Square Wave Voltammetry	Test Identifier
DATE	LABEL	8/10/2020	Date
TIME	LABEL	13:16:05	Time
NOTES	NOTES	1	Notes...
	 STD3 aptmch 08102
PSTAT	PSTAT	REF600-24079	Potentiostat
VINIT	QUANT	-3.50000E-001	Initial E (V)
VFINAL	QUANT	-1.50000E-001	Final E (V)
STEPSIZE	QUANT	2.00000E+000	Step Size (mV)
TIMERRES	QUANT	3.33340E-005	&Timer Resolution
FREQUENCY	QUANT	1.00000E+001	Frequency (Hz)
PULSESIZE	QUANT	2.50000E+001	Pulse Size E (mV)
PULSEON	QUANT	1.00000E-001	Pulse &Time (s)
NOISEREJECT	TOGGLE	F	Noise Rejection
AREA	QUANT	2.00000E-002	Sample Area (cm^2)
IMODE	SELECTOR	1	I/E Range Mode
IRANGE	QUANT	1.00000E-003	Max Current (mA)
EQDELAY	IQUANT	10	Equil. Time (s)
IRCOMP	SELECTOR	0	IRComp
PFCOR	QUANT	5.00000E+001	PF Corr. (ohm)
CYCLES	IQUANT	101	C&ycles (#)
ELECTRODETYPE	SELECTOR	0	Electrode Type
STRIPPING	TOGGLE	F	Used for Stripping
POLARITY	TOGGLE	F	Signal Polarity
LINEFREQ	IQUANT	60	Line Frequency (Hz)
INTPERIOD	QUANT	3.3334E-005	Integration Period (s)
SEQUENCER	TOGGLE	TRUE	Run as Sequence
PSTATMODEL	IQUANT	4	Pstat Model
PSTATSECTION	LABEL	REF600-24079	Pstat Section
PSTATSERIALNO	LABEL	24079	Pstat Serial Number
CTRLMODE	IQUANT	1	Control Mode
ELECTROMETER	IQUANT	0	RE=0 or CS=1
IESTAB	IQUANT	2	I/E Stability
CASPEED	IQUANT	6	Control Amp Speed
CONVENTION	IQUANT	1	Current Convention
ICHRANGE	IQUANT	2	Ich Range
ICHRANGEMODE	TOGGLE	F	Ich Auto Range
ICHOFFSETENABLE	TOGGLE	F	Ich Offset Enable
ICHOFFSET	QUANT	0	Ich Offset (V)
ICHFILTER	IQUANT	2	Ich Filter
VCHRANGE	IQUANT	2	Vch Range
VCHRANGEMODE	TOGGLE	F	Vch Auto Range
VCHOFFSETENABLE	TOGGLE	F	Vch Offset Enable
VCHOFFSET	QUANT	0	Vch Offset (V)
VCHFILTER	IQUANT	2	Vch Filter
ACHRANGE	IQUANT	2	Ach Range
ACHOFFSETENABLE	TOGGLE	F	Ach Offset Enable
ACHOFFSET	QUANT	0	Ach Offset (V)
ACHFILTER	IQUANT	1	Ach Filter
IERANGELOWERLIMIT	IQUANT	1	I/E Range Lower Limit
IERANGEMODE	TOGGLE	F	I/E AutoRange
IERANGE	IQUANT	6	I/E Range
POSFEEDENABLE	TOGGLE	F	Positive Feedback IR Comp
POSFEEDRESISTANCE	QUANT	0	Positive Feedback Resistance (ohm)
ACHSELECT	IQUANT	0	Ach Select
SENSECABLEID	IQUANT	13	Sense Cable ID
PWRCABLEID	IQUANT	13	Power Cable ID
DCCALDATE	LABEL	6/30/2020	DC Calibration Date
ACCALDATE	LABEL	6/30/2020	AC Calibration Date
THERMOSELECT	IQUANT	1	Thermo Select
FRAMEWORKVERSION	LABEL	7.8.2	Framework Version
INSTRUMENTVERSION	LABEL	4.40	Instrument Version
CURVE	TABLE	101
	Pt	T	Vfwd	Vrev	Vstep	Ifwd	Irev	Idif	Sig	Ach	IERange	Over	Temp
	#	s	V	V	V	A	A	A	V	V	#	bits	deg C
	0	0.1	-3.24797E-001	-3.74863E-001	-3.49830E-001	-1.25450E-008	-4.51432E-008	3.25981E-008	-3.75000E-001	4.03706E-004	6	..........a	-327.68
	2	0.3	-3.20873E-001	-3.70742E-001	-3.45808E-001	2.54724E-009	-3.79879E-008	4.05352E-008	-3.71000E-001	3.83539E-004	6	..........a	-327.68
	4	0.5	-3.16809E-001	-3.66916E-001	-3.41862E-001	4.63717E-009	-3.57686E-008	4.04058E-008	-3.67000E-001	3.85873E-004	6	..........a	-327.68
	6	0.7	-3.12891E-001	-3.62800E-001	-3.37846E-001	5.77232E-009	-3.41068E-008	3.98791E-008	-3.63000E-001	3.96039E-004	6	..........a	-327.68
	8	0.9	-3.08799E-001	-3.58834E-001	-3.33816E-001	6.62709E-009	-3.31756E-008	3.98027E-008	-3.59000E-001	3.93373E-004	6	..........a	-327.68
	10	1.1	-3.04839E-001	-3.54812E-001	-3.29826E-001	7.56721E-009	-3.19902E-008	3.95574E-008	-3.55000E-001	3.84206E-004	6	..........a	-327.68
	12	1.3	-3.00854E-001	-3.50857E-001	-3.25855E-001	8.20229E-009	-3.11057E-008	3.93080E-008	-3.51000E-001	3.92039E-004	6	..........a	-327.68
	14	1.5	-2.96871E-001	-3.46847E-001	-3.21859E-001	8.71336E-009	-3.00712E-008	3.87846E-008	-3.47000E-001	3.76039E-004	6	..........a	-327.68
	16	1.7	-2.92678E-001	-3.42884E-001	-3.17781E-001	9.55013E-009	-2.93735E-008	3.89236E-008	-3.43000E-001	3.97706E-004	6	..........a	-327.68
	18	1.9	-2.88882E-001	-3.38842E-001	-3.13862E-001	1.02252E-008	-2.89558E-008	3.91810E-008	-3.39000E-001	3.87706E-004	6	..........a	-327.68
	20	2.1	-2.84783E-001	-3.34861E-001	-3.09822E-001	1.08173E-008	-2.83157E-008	3.91330E-008	-3.35000E-001	3.91039E-004	6	..........a	-327.68
	22	2.3	-2.80853E-001	-3.30796E-001	-3.05824E-001	1.15014E-008	-2.79210E-008	3.94223E-008	-3.31000E-001	3.90706E-004	6	..........a	-327.68
	24	2.5	-2.76779E-001	-3.26859E-001	-3.01819E-001	1.23662E-008	-2.74322E-008	3.97984E-008	-3.27000E-001	3.86873E-004	6	..........a	-327.68
	26	2.7	-2.72850E-001	-3.22834E-001	-2.97842E-001	1.29289E-008	-2.71299E-008	4.00588E-008	-3.23000E-001	3.87873E-004	6	..........a	-327.68
	28	2.9	-2.68862E-001	-3.18912E-001	-2.93887E-001	1.35656E-008	-2.70212E-008	4.05868E-008	-3.19000E-001	3.84706E-004	6	..........a	-327.68
	30	3.1	-2.64881E-001	-3.14865E-001	-2.89873E-001	1.42687E-008	-2.67208E-008	4.09895E-008	-3.15000E-001	3.97039E-004	6	..........a	-327.68
	32	3.3	-2.60729E-001	-3.10863E-001	-2.85796E-001	1.49408E-008	-2.66231E-008	4.15640E-008	-3.11000E-001	4.00873E-004	6	..........a	-327.68
	34	3.5	-2.56818E-001	-3.06819E-001	-2.81818E-001	1.54669E-008	-2.62561E-008	4.17230E-008	-3.07000E-001	4.03039E-004	6	..........a	-327.68
	36	3.7	-2.52830E-001	-3.02884E-001	-2.77857E-001	1.59236E-008	-2.65158E-008	4.24394E-008	-3.03000E-001	4.03873E-004	6	..........a	-327.68
	38	3.9	-2.48864E-001	-2.98827E-001	-2.73846E-001	1.65337E-008	-2.65295E-008	4.30631E-008	-2.99000E-001	3.96206E-004	6	..........a	-327.68
	40	4.1	-2.44851E-001	-2.94851E-001	-2.69851E-001	1.66074E-008	-2.64214E-008	4.30288E-008	-2.95000E-001	3.88039E-004	6	..........a	-327.68
	42	4.3	-2.40804E-001	-2.90829E-001	-2.65816E-001	1.67170E-008	-2.62301E-008	4.29471E-008	-2.91000E-001	3.82706E-004	6	..........a	-327.68
	44	4.5	-2.36838E-001	-2.86860E-001	-2.61849E-001	1.66944E-008	-2.58830E-008	4.25774E-008	-2.87000E-001	3.91873E-004	6	..........a	-327.68
	46	4.7	-2.32834E-001	-2.82797E-001	-2.57816E-001	1.65500E-008	-2.57017E-008	4.22517E-008	-2.83000E-001	3.98873E-004	6	..........a	-327.68
	48	4.9	-2.28762E-001	-2.78857E-001	-2.53810E-001	1.67494E-008	-2.53706E-008	4.21200E-008	-2.79000E-001	3.86873E-004	6	..........a	-327.68
	50	5.1	-2.24837E-001	-2.74835E-001	-2.49836E-001	1.64563E-008	-2.49649E-008	4.14213E-008	-2.75000E-001	3.94039E-004	6	..........a	-327.68
	52	5.3	-2.20845E-001	-2.70864E-001	-2.45854E-001	1.64547E-008	-2.43729E-008	4.08275E-008	-2.71000E-001	3.97706E-004	6	..........a	-327.68
	54	5.5	-2.16818E-001	-2.66796E-001	-2.41807E-001	1.61850E-008	-2.37988E-008	3.99838E-008	-2.67000E-001	3.84873E-004	6	..........a	-327.68
	56	5.7	-2.12782E-001	-2.62903E-001	-2.37843E-001	1.60816E-008	-2.30247E-008	3.91063E-008	-2.63000E-001	3.97539E-004	6	..........a	-327.68
	58	5.9	-2.08815E-001	-2.58815E-001	-2.33815E-001	1.61510E-008	-2.24239E-008	3.85749E-008	-2.59000E-001	3.85873E-004	6	..........a	-327.68
	60	6.1	-2.04809E-001	-2.54884E-001	-2.29847E-001	1.60780E-008	-2.17852E-008	3.78632E-008	-2.55000E-001	3.87706E-004	6	..........a	-327.68
	62	6.3	-2.00854E-001	-2.50831E-001	-2.25843E-001	1.60273E-008	-2.14221E-008	3.74494E-008	-2.51000E-001	4.00206E-004	6	..........a	-327.68
	64	6.5	-1.96812E-001	-2.46863E-001	-2.21838E-001	1.60080E-008	-2.08884E-008	3.68964E-008	-2.47000E-001	4.05039E-004	6	..........a	-327.68
	66	6.7	-1.92857E-001	-2.42790E-001	-2.17823E-001	1.62193E-008	-2.02643E-008	3.64836E-008	-2.43000E-001	3.82706E-004	6	..........a	-327.68
	68	6.9	-1.88834E-001	-2.38899E-001	-2.13866E-001	1.60396E-008	-1.97073E-008	3.57469E-008	-2.39000E-001	3.89706E-004	6	..........a	-327.68
	70	7.1	-1.84871E-001	-2.34804E-001	-2.09837E-001	1.60216E-008	-1.92665E-008	3.52882E-008	-2.35000E-001	3.86039E-004	6	..........a	-327.68
	72	7.3	-1.80750E-001	-2.30852E-001	-2.05801E-001	1.62056E-008	-1.88481E-008	3.50538E-008	-2.31000E-001	3.75206E-004	6	..........a	-327.68
	74	7.5	-1.76794E-001	-2.26809E-001	-2.01801E-001	1.62997E-008	-1.83808E-008	3.46804E-008	-2.27000E-001	3.93706E-004	6	..........a	-327.68
	76	7.7	-1.72814E-001	-2.22858E-001	-1.97836E-001	1.63463E-008	-1.81294E-008	3.44757E-008	-2.23000E-001	3.98373E-004	6	..........a	-327.68
	78	7.9	-1.68841E-001	-2.18829E-001	-1.93835E-001	1.63757E-008	-1.76977E-008	3.40733E-008	-2.19000E-001	4.00539E-004	6	..........a	-327.68
	80	8.1	-1.64702E-001	-2.14883E-001	-1.89792E-001	1.63697E-008	-1.72599E-008	3.36296E-008	-2.15000E-001	3.96873E-004	6	..........a	-327.68
	82	8.3	-1.60884E-001	-2.10838E-001	-1.85861E-001	1.64193E-008	-1.70703E-008	3.34896E-008	-2.11000E-001	3.83039E-004	6	..........a	-327.68
	84	8.5	-1.56795E-001	-2.06868E-001	-1.81831E-001	1.66104E-008	-1.69196E-008	3.35299E-008	-2.07000E-001	3.88873E-004	6	..........a	-327.68
	86	8.7	-1.52858E-001	-2.02804E-001	-1.77831E-001	1.66200E-008	-1.65762E-008	3.31962E-008	-2.03000E-001	3.97873E-004	6	..........a	-327.68
	88	8.9	-1.48800E-001	-1.98881E-001	-1.73841E-001	1.68354E-008	-1.62822E-008	3.31175E-008	-1.99000E-001	3.86706E-004	6	..........a	-327.68
	90	9.1	-1.44841E-001	-1.94838E-001	-1.69840E-001	1.69481E-008	-1.63035E-008	3.32516E-008	-1.95000E-001	3.90206E-004	6	..........a	-327.68
	92	9.3	-1.40852E-001	-1.90874E-001	-1.65863E-001	1.69811E-008	-1.59584E-008	3.29395E-008	-1.91000E-001	3.80873E-004	6	..........a	-327.68
	94	9.5	-1.36858E-001	-1.86815E-001	-1.61836E-001	1.70828E-008	-1.56897E-008	3.27725E-008	-1.87000E-001	3.89539E-004	6	..........a	-327.68
	96	9.7	-1.32756E-001	-1.82846E-001	-1.57801E-001	1.73608E-008	-1.57758E-008	3.31366E-008	-1.83000E-001	3.88873E-004	6	..........a	-327.68
	98	9.9	-1.28813E-001	-1.78801E-001	-1.53807E-001	1.73025E-008	-1.53440E-008	3.26465E-008	-1.79000E-001	3.77873E-004	6	..........a	-327.68
	100	10.1	-1.24812E-001	-1.74855E-001	-1.49834E-001	1.73185E-008	-1.53467E-008	3.26652E-008	-1.75000E-001	4.02539E-004	6	..........a	-327.68