Folder: EchemAnalysis_AMA/C-COM2 (part 6)

File: SWV_10Hz STD2 50  fgml 081020_#8.DTA
EXPLAIN
TAG	SQUARE_WAVE
TITLE	LABEL	Square Wave Voltammetry	Test Identifier
DATE	LABEL	8/10/2020	Date
TIME	LABEL	19:29:01	Time
NOTES	NOTES	1	Notes...
	 STD2 50  fg/mL 08102
PSTAT	PSTAT	REF600-24079	Potentiostat
VINIT	QUANT	-3.50000E-001	Initial E (V)
VFINAL	QUANT	-1.50000E-001	Final E (V)
STEPSIZE	QUANT	2.00000E+000	Step Size (mV)
TIMERRES	QUANT	3.33340E-005	&Timer Resolution
FREQUENCY	QUANT	1.00000E+001	Frequency (Hz)
PULSESIZE	QUANT	2.50000E+001	Pulse Size E (mV)
PULSEON	QUANT	1.00000E-001	Pulse &Time (s)
NOISEREJECT	TOGGLE	F	Noise Rejection
AREA	QUANT	2.00000E-002	Sample Area (cm^2)
IMODE	SELECTOR	1	I/E Range Mode
IRANGE	QUANT	1.00000E-003	Max Current (mA)
EQDELAY	IQUANT	10	Equil. Time (s)
IRCOMP	SELECTOR	0	IRComp
PFCOR	QUANT	5.00000E+001	PF Corr. (ohm)
CYCLES	IQUANT	101	C&ycles (#)
ELECTRODETYPE	SELECTOR	0	Electrode Type
STRIPPING	TOGGLE	F	Used for Stripping
POLARITY	TOGGLE	F	Signal Polarity
LINEFREQ	IQUANT	60	Line Frequency (Hz)
INTPERIOD	QUANT	3.3334E-005	Integration Period (s)
SEQUENCER	TOGGLE	TRUE	Run as Sequence
PSTATMODEL	IQUANT	4	Pstat Model
PSTATSECTION	LABEL	REF600-24079	Pstat Section
PSTATSERIALNO	LABEL	24079	Pstat Serial Number
CTRLMODE	IQUANT	1	Control Mode
ELECTROMETER	IQUANT	0	RE=0 or CS=1
IESTAB	IQUANT	2	I/E Stability
CASPEED	IQUANT	6	Control Amp Speed
CONVENTION	IQUANT	1	Current Convention
ICHRANGE	IQUANT	2	Ich Range
ICHRANGEMODE	TOGGLE	F	Ich Auto Range
ICHOFFSETENABLE	TOGGLE	F	Ich Offset Enable
ICHOFFSET	QUANT	0	Ich Offset (V)
ICHFILTER	IQUANT	2	Ich Filter
VCHRANGE	IQUANT	2	Vch Range
VCHRANGEMODE	TOGGLE	F	Vch Auto Range
VCHOFFSETENABLE	TOGGLE	F	Vch Offset Enable
VCHOFFSET	QUANT	0	Vch Offset (V)
VCHFILTER	IQUANT	2	Vch Filter
ACHRANGE	IQUANT	2	Ach Range
ACHOFFSETENABLE	TOGGLE	F	Ach Offset Enable
ACHOFFSET	QUANT	0	Ach Offset (V)
ACHFILTER	IQUANT	1	Ach Filter
IERANGELOWERLIMIT	IQUANT	1	I/E Range Lower Limit
IERANGEMODE	TOGGLE	F	I/E AutoRange
IERANGE	IQUANT	6	I/E Range
POSFEEDENABLE	TOGGLE	F	Positive Feedback IR Comp
POSFEEDRESISTANCE	QUANT	0	Positive Feedback Resistance (ohm)
ACHSELECT	IQUANT	0	Ach Select
SENSECABLEID	IQUANT	13	Sense Cable ID
PWRCABLEID	IQUANT	13	Power Cable ID
DCCALDATE	LABEL	6/30/2020	DC Calibration Date
ACCALDATE	LABEL	6/30/2020	AC Calibration Date
THERMOSELECT	IQUANT	1	Thermo Select
FRAMEWORKVERSION	LABEL	7.8.2	Framework Version
INSTRUMENTVERSION	LABEL	4.40	Instrument Version
CURVE	TABLE	101
	Pt	T	Vfwd	Vrev	Vstep	Ifwd	Irev	Idif	Sig	Ach	IERange	Over	Temp
	#	s	V	V	V	A	A	A	V	V	#	bits	deg C
	0	0.1	-3.24886E-001	-3.74897E-001	-3.49891E-001	-9.59546E-008	-1.86927E-007	9.09719E-008	-3.75000E-001	3.51873E-004	6	..........a	-327.68
	2	0.3	-3.20883E-001	-3.70817E-001	-3.45850E-001	-7.65642E-008	-1.75000E-007	9.84362E-008	-3.71000E-001	3.69206E-004	6	..........a	-327.68
	4	0.5	-3.16806E-001	-3.66925E-001	-3.41866E-001	-7.13768E-008	-1.67449E-007	9.60726E-008	-3.67000E-001	3.86706E-004	6	..........a	-327.68
	6	0.7	-3.12889E-001	-3.62856E-001	-3.37873E-001	-6.70920E-008	-1.61181E-007	9.40890E-008	-3.63000E-001	3.77873E-004	6	..........a	-327.68
	8	0.9	-3.08844E-001	-3.58901E-001	-3.33872E-001	-6.27451E-008	-1.54912E-007	9.21667E-008	-3.59000E-001	3.71039E-004	6	..........a	-327.68
	10	1.1	-3.04895E-001	-3.54867E-001	-3.29881E-001	-5.93113E-008	-1.49456E-007	9.01451E-008	-3.55000E-001	3.63539E-004	6	..........a	-327.68
	12	1.3	-3.00885E-001	-3.50895E-001	-3.25890E-001	-5.53088E-008	-1.43436E-007	8.81275E-008	-3.51000E-001	3.63873E-004	6	..........a	-327.68
	14	1.5	-2.96874E-001	-3.46882E-001	-3.21878E-001	-5.18297E-008	-1.38053E-007	8.62230E-008	-3.47000E-001	3.65039E-004	6	..........a	-327.68
	16	1.7	-2.92945E-001	-3.42931E-001	-3.17938E-001	-4.84349E-008	-1.32543E-007	8.41080E-008	-3.43000E-001	3.52706E-004	6	..........a	-327.68
	18	1.9	-2.88920E-001	-3.38863E-001	-3.13891E-001	-4.49941E-008	-1.27847E-007	8.28532E-008	-3.39000E-001	3.63039E-004	6	..........a	-327.68
	20	2.1	-2.84814E-001	-3.34904E-001	-3.09859E-001	-4.15660E-008	-1.23075E-007	8.15094E-008	-3.35000E-001	3.64206E-004	6	..........a	-327.68
	22	2.3	-2.80911E-001	-3.30853E-001	-3.05882E-001	-3.80893E-008	-1.18533E-007	8.04436E-008	-3.31000E-001	3.62373E-004	6	..........a	-327.68
	24	2.5	-2.76863E-001	-3.26893E-001	-3.01878E-001	-3.50185E-008	-1.14002E-007	7.89834E-008	-3.27000E-001	3.44373E-004	6	..........a	-327.68
	26	2.7	-2.72895E-001	-3.22873E-001	-2.97884E-001	-3.19912E-008	-1.09570E-007	7.75789E-008	-3.23000E-001	3.45873E-004	6	..........a	-327.68
	28	2.9	-2.68881E-001	-3.18887E-001	-2.93884E-001	-2.87947E-008	-1.05617E-007	7.68224E-008	-3.19000E-001	3.60873E-004	6	..........a	-327.68
	30	3.1	-2.64918E-001	-3.14904E-001	-2.89911E-001	-2.59771E-008	-1.01813E-007	7.58360E-008	-3.15000E-001	3.57206E-004	6	..........a	-327.68
	32	3.3	-2.60815E-001	-3.10911E-001	-2.85863E-001	-2.31100E-008	-9.82662E-008	7.51562E-008	-3.11000E-001	3.64206E-004	6	..........a	-327.68
	34	3.5	-2.56893E-001	-3.06872E-001	-2.81882E-001	-2.05250E-008	-9.45198E-008	7.39947E-008	-3.07000E-001	3.68706E-004	6	..........a	-327.68
	36	3.7	-2.52857E-001	-3.02917E-001	-2.77887E-001	-1.78847E-008	-9.15924E-008	7.37077E-008	-3.03000E-001	3.65539E-004	6	..........a	-327.68
	38	3.9	-2.48888E-001	-2.98872E-001	-2.73880E-001	-1.56177E-008	-8.80279E-008	7.24102E-008	-2.99000E-001	3.41373E-004	6	..........a	-327.68
	40	4.1	-2.44887E-001	-2.94895E-001	-2.69891E-001	-1.33061E-008	-8.52199E-008	7.19138E-008	-2.95000E-001	3.63373E-004	6	..........a	-327.68
	42	4.3	-2.40908E-001	-2.90840E-001	-2.65874E-001	-1.12062E-008	-8.20715E-008	7.08653E-008	-2.91000E-001	3.71206E-004	6	..........a	-327.68
	44	4.5	-2.36820E-001	-2.86904E-001	-2.61862E-001	-9.30093E-009	-7.94229E-008	7.01219E-008	-2.87000E-001	3.60206E-004	6	..........a	-327.68
	46	4.7	-2.32882E-001	-2.82849E-001	-2.57865E-001	-7.28901E-009	-7.65205E-008	6.92315E-008	-2.83000E-001	3.86873E-004	6	..........a	-327.68
	48	4.9	-2.28833E-001	-2.78893E-001	-2.53863E-001	-5.84249E-009	-7.39655E-008	6.81230E-008	-2.79000E-001	3.57039E-004	6	..........a	-327.68
	50	5.1	-2.24885E-001	-2.74873E-001	-2.49879E-001	-4.09894E-009	-7.11848E-008	6.70859E-008	-2.75000E-001	3.50539E-004	6	..........a	-327.68
	52	5.3	-2.20879E-001	-2.70859E-001	-2.45869E-001	-2.60775E-009	-6.84668E-008	6.58590E-008	-2.71000E-001	3.53039E-004	6	..........a	-327.68
	54	5.5	-2.16897E-001	-2.66843E-001	-2.41870E-001	-1.13489E-009	-6.59708E-008	6.48359E-008	-2.67000E-001	3.33706E-004	6	..........a	-327.68
	56	5.7	-2.12865E-001	-2.62878E-001	-2.37872E-001	3.72964E-010	-6.30784E-008	6.34514E-008	-2.63000E-001	3.51039E-004	6	..........a	-327.68
	58	5.9	-2.08872E-001	-2.58851E-001	-2.33861E-001	1.58879E-009	-6.07425E-008	6.23313E-008	-2.59000E-001	3.79373E-004	6	..........a	-327.68
	60	6.1	-2.04825E-001	-2.54888E-001	-2.29857E-001	2.55024E-009	-5.83978E-008	6.09481E-008	-2.55000E-001	3.55206E-004	6	..........a	-327.68
	62	6.3	-2.00875E-001	-2.50864E-001	-2.25869E-001	3.73673E-009	-5.60382E-008	5.97749E-008	-2.51000E-001	3.45039E-004	6	..........a	-327.68
	64	6.5	-1.96878E-001	-2.46867E-001	-2.21873E-001	4.91187E-009	-5.37553E-008	5.86671E-008	-2.47000E-001	3.52373E-004	6	..........a	-327.68
	66	6.7	-1.92890E-001	-2.42818E-001	-2.17854E-001	5.97768E-009	-5.17920E-008	5.77697E-008	-2.43000E-001	3.33873E-004	6	..........a	-327.68
	68	6.9	-1.88763E-001	-2.38917E-001	-2.13840E-001	6.98547E-009	-4.97751E-008	5.67606E-008	-2.39000E-001	3.55539E-004	6	..........a	-327.68
	70	7.1	-1.84894E-001	-2.34854E-001	-2.09874E-001	7.89225E-009	-4.77145E-008	5.56067E-008	-2.35000E-001	3.35039E-004	6	..........a	-327.68
	72	7.3	-1.80767E-001	-2.30883E-001	-2.05825E-001	8.98339E-009	-4.58769E-008	5.48603E-008	-2.31000E-001	3.39706E-004	6	..........a	-327.68
	74	7.5	-1.76859E-001	-2.26845E-001	-2.01852E-001	9.87884E-009	-4.44987E-008	5.43776E-008	-2.27000E-001	3.53373E-004	6	..........a	-327.68
	76	7.7	-1.72816E-001	-2.22882E-001	-1.97849E-001	1.06999E-008	-4.27885E-008	5.34885E-008	-2.23000E-001	3.35539E-004	6	..........a	-327.68
	78	7.9	-1.68873E-001	-2.18875E-001	-1.93874E-001	1.16161E-008	-4.11310E-008	5.27470E-008	-2.19000E-001	3.45039E-004	6	..........a	-327.68
	80	8.1	-1.64846E-001	-2.14922E-001	-1.89884E-001	1.25969E-008	-3.96925E-008	5.22893E-008	-2.15000E-001	3.50039E-004	6	..........a	-327.68
	82	8.3	-1.60890E-001	-2.10875E-001	-1.85882E-001	1.33563E-008	-3.81863E-008	5.15426E-008	-2.11000E-001	3.38873E-004	6	..........a	-327.68
	84	8.5	-1.56789E-001	-2.06895E-001	-1.81842E-001	1.42547E-008	-3.70175E-008	5.12722E-008	-2.07000E-001	3.35706E-004	6	..........a	-327.68
	86	8.7	-1.52876E-001	-2.02838E-001	-1.77857E-001	1.49968E-008	-3.55083E-008	5.05051E-008	-2.03000E-001	3.42206E-004	6	..........a	-327.68
	88	8.9	-1.48840E-001	-1.98894E-001	-1.73867E-001	1.58823E-008	-3.47425E-008	5.06248E-008	-1.99000E-001	3.40206E-004	6	..........a	-327.68
	90	9.1	-1.44864E-001	-1.94862E-001	-1.69863E-001	1.66670E-008	-3.33940E-008	5.00610E-008	-1.95000E-001	3.24873E-004	6	..........a	-327.68
	92	9.3	-1.40860E-001	-1.90883E-001	-1.65871E-001	1.73958E-008	-3.23619E-008	4.97577E-008	-1.91000E-001	3.25873E-004	6	..........a	-327.68
	94	9.5	-1.36875E-001	-1.86863E-001	-1.61869E-001	1.79529E-008	-3.14034E-008	4.93563E-008	-1.87000E-001	3.49206E-004	6	..........a	-327.68
	96	9.7	-1.32788E-001	-1.82881E-001	-1.57834E-001	1.86603E-008	-3.04476E-008	4.91079E-008	-1.83000E-001	3.55206E-004	6	..........a	-327.68
	98	9.9	-1.28858E-001	-1.78835E-001	-1.53846E-001	1.92520E-008	-2.94075E-008	4.86595E-008	-1.79000E-001	3.41539E-004	6	..........a	-327.68
	100	10.1	-1.24846E-001	-1.74885E-001	-1.49865E-001	1.98494E-008	-2.88561E-008	4.87055E-008	-1.75000E-001	3.35373E-004	6	..........a	-327.68

File: SWV_10Hz STD2 50  fgml 081020_#9.DTA
EXPLAIN
TAG	SQUARE_WAVE
TITLE	LABEL	Square Wave Voltammetry	Test Identifier
DATE	LABEL	8/10/2020	Date
TIME	LABEL	19:29:21	Time
NOTES	NOTES	1	Notes...
	 STD2 50  fg/mL 08102
PSTAT	PSTAT	REF600-24079	Potentiostat
VINIT	QUANT	-3.50000E-001	Initial E (V)
VFINAL	QUANT	-1.50000E-001	Final E (V)
STEPSIZE	QUANT	2.00000E+000	Step Size (mV)
TIMERRES	QUANT	3.33340E-005	&Timer Resolution
FREQUENCY	QUANT	1.00000E+001	Frequency (Hz)
PULSESIZE	QUANT	2.50000E+001	Pulse Size E (mV)
PULSEON	QUANT	1.00000E-001	Pulse &Time (s)
NOISEREJECT	TOGGLE	F	Noise Rejection
AREA	QUANT	2.00000E-002	Sample Area (cm^2)
IMODE	SELECTOR	1	I/E Range Mode
IRANGE	QUANT	1.00000E-003	Max Current (mA)
EQDELAY	IQUANT	10	Equil. Time (s)
IRCOMP	SELECTOR	0	IRComp
PFCOR	QUANT	5.00000E+001	PF Corr. (ohm)
CYCLES	IQUANT	101	C&ycles (#)
ELECTRODETYPE	SELECTOR	0	Electrode Type
STRIPPING	TOGGLE	F	Used for Stripping
POLARITY	TOGGLE	F	Signal Polarity
LINEFREQ	IQUANT	60	Line Frequency (Hz)
INTPERIOD	QUANT	3.3334E-005	Integration Period (s)
SEQUENCER	TOGGLE	TRUE	Run as Sequence
PSTATMODEL	IQUANT	4	Pstat Model
PSTATSECTION	LABEL	REF600-24079	Pstat Section
PSTATSERIALNO	LABEL	24079	Pstat Serial Number
CTRLMODE	IQUANT	1	Control Mode
ELECTROMETER	IQUANT	0	RE=0 or CS=1
IESTAB	IQUANT	2	I/E Stability
CASPEED	IQUANT	6	Control Amp Speed
CONVENTION	IQUANT	1	Current Convention
ICHRANGE	IQUANT	2	Ich Range
ICHRANGEMODE	TOGGLE	F	Ich Auto Range
ICHOFFSETENABLE	TOGGLE	F	Ich Offset Enable
ICHOFFSET	QUANT	0	Ich Offset (V)
ICHFILTER	IQUANT	2	Ich Filter
VCHRANGE	IQUANT	2	Vch Range
VCHRANGEMODE	TOGGLE	F	Vch Auto Range
VCHOFFSETENABLE	TOGGLE	F	Vch Offset Enable
VCHOFFSET	QUANT	0	Vch Offset (V)
VCHFILTER	IQUANT	2	Vch Filter
ACHRANGE	IQUANT	2	Ach Range
ACHOFFSETENABLE	TOGGLE	F	Ach Offset Enable
ACHOFFSET	QUANT	0	Ach Offset (V)
ACHFILTER	IQUANT	1	Ach Filter
IERANGELOWERLIMIT	IQUANT	1	I/E Range Lower Limit
IERANGEMODE	TOGGLE	F	I/E AutoRange
IERANGE	IQUANT	6	I/E Range
POSFEEDENABLE	TOGGLE	F	Positive Feedback IR Comp
POSFEEDRESISTANCE	QUANT	0	Positive Feedback Resistance (ohm)
ACHSELECT	IQUANT	0	Ach Select
SENSECABLEID	IQUANT	13	Sense Cable ID
PWRCABLEID	IQUANT	13	Power Cable ID
DCCALDATE	LABEL	6/30/2020	DC Calibration Date
ACCALDATE	LABEL	6/30/2020	AC Calibration Date
THERMOSELECT	IQUANT	1	Thermo Select
FRAMEWORKVERSION	LABEL	7.8.2	Framework Version
INSTRUMENTVERSION	LABEL	4.40	Instrument Version
CURVE	TABLE	101
	Pt	T	Vfwd	Vrev	Vstep	Ifwd	Irev	Idif	Sig	Ach	IERange	Over	Temp
	#	s	V	V	V	A	A	A	V	V	#	bits	deg C
	0	0.1	-3.24875E-001	-3.74898E-001	-3.49887E-001	-9.58856E-008	-1.86833E-007	9.09469E-008	-3.75000E-001	3.35706E-004	6	..........a	-327.68
	2	0.3	-3.20862E-001	-3.70814E-001	-3.45838E-001	-7.65208E-008	-1.74717E-007	9.81958E-008	-3.71000E-001	3.69706E-004	6	..........a	-327.68
	4	0.5	-3.16811E-001	-3.66914E-001	-3.41862E-001	-7.14268E-008	-1.67366E-007	9.59392E-008	-3.67000E-001	3.69206E-004	6	..........a	-327.68
	6	0.7	-3.12887E-001	-3.62843E-001	-3.37865E-001	-6.71606E-008	-1.61029E-007	9.38686E-008	-3.63000E-001	3.61539E-004	6	..........a	-327.68
	8	0.9	-3.08850E-001	-3.58881E-001	-3.33866E-001	-6.31545E-008	-1.54877E-007	9.17227E-008	-3.59000E-001	3.58206E-004	6	..........a	-327.68
	10	1.1	-3.04886E-001	-3.54845E-001	-3.29866E-001	-5.91956E-008	-1.49266E-007	9.00705E-008	-3.55000E-001	3.38539E-004	6	..........a	-327.68
	12	1.3	-3.00877E-001	-3.50892E-001	-3.25884E-001	-5.54075E-008	-1.43346E-007	8.79382E-008	-3.51000E-001	3.53039E-004	6	..........a	-327.68
	14	1.5	-2.96868E-001	-3.46872E-001	-3.21870E-001	-5.18780E-008	-1.38136E-007	8.62576E-008	-3.47000E-001	3.49039E-004	6	..........a	-327.68
	16	1.7	-2.92761E-001	-3.42917E-001	-3.17839E-001	-4.83479E-008	-1.32950E-007	8.46018E-008	-3.43000E-001	3.28706E-004	6	..........a	-327.68
	18	1.9	-2.88899E-001	-3.38857E-001	-3.13878E-001	-4.49761E-008	-1.27729E-007	8.27532E-008	-3.39000E-001	3.50539E-004	6	..........a	-327.68
	20	2.1	-2.84796E-001	-3.34887E-001	-3.09841E-001	-4.17964E-008	-1.23261E-007	8.14644E-008	-3.35000E-001	3.50373E-004	6	..........a	-327.68
	22	2.3	-2.80902E-001	-3.30848E-001	-3.05875E-001	-3.83706E-008	-1.18388E-007	8.00178E-008	-3.31000E-001	3.49373E-004	6	..........a	-327.68
	24	2.5	-2.76818E-001	-3.26887E-001	-3.01853E-001	-3.50205E-008	-1.14000E-007	7.89790E-008	-3.27000E-001	3.58539E-004	6	..........a	-327.68
	26	2.7	-2.72876E-001	-3.22873E-001	-2.97875E-001	-3.21172E-008	-1.09589E-007	7.74722E-008	-3.23000E-001	3.50039E-004	6	..........a	-327.68
	28	2.9	-2.68870E-001	-3.18909E-001	-2.93889E-001	-2.88498E-008	-1.05787E-007	7.69375E-008	-3.19000E-001	3.50206E-004	6	..........a	-327.68
	30	3.1	-2.64900E-001	-3.14885E-001	-2.89892E-001	-2.58934E-008	-1.01963E-007	7.60697E-008	-3.15000E-001	3.53373E-004	6	..........a	-327.68
	32	3.3	-2.60802E-001	-3.10872E-001	-2.85837E-001	-2.30907E-008	-9.85720E-008	7.54813E-008	-3.11000E-001	3.44206E-004	6	..........a	-327.68
	34	3.5	-2.56874E-001	-3.06845E-001	-2.81859E-001	-2.06920E-008	-9.49675E-008	7.42754E-008	-3.07000E-001	3.54373E-004	6	..........a	-327.68
	36	3.7	-2.52832E-001	-3.02897E-001	-2.77864E-001	-1.81351E-008	-9.13330E-008	7.31980E-008	-3.03000E-001	3.40039E-004	6	..........a	-327.68
	38	3.9	-2.48867E-001	-2.98860E-001	-2.73864E-001	-1.54874E-008	-8.82733E-008	7.27859E-008	-2.99000E-001	3.30039E-004	6	..........a	-327.68
	40	4.1	-2.44860E-001	-2.94866E-001	-2.69863E-001	-1.32264E-008	-8.51319E-008	7.19055E-008	-2.95000E-001	3.41873E-004	6	..........a	-327.68
	42	4.3	-2.40892E-001	-2.90835E-001	-2.65863E-001	-1.09125E-008	-8.21535E-008	7.12411E-008	-2.91000E-001	3.55873E-004	6	..........a	-327.68
	44	4.5	-2.36810E-001	-2.86893E-001	-2.61852E-001	-9.32494E-009	-7.92832E-008	6.99582E-008	-2.87000E-001	3.45706E-004	6	..........a	-327.68
	46	4.7	-2.32863E-001	-2.82831E-001	-2.57847E-001	-7.26167E-009	-7.63011E-008	6.90395E-008	-2.83000E-001	3.45706E-004	6	..........a	-327.68
	48	4.9	-2.28811E-001	-2.78886E-001	-2.53848E-001	-5.78349E-009	-7.37341E-008	6.79506E-008	-2.79000E-001	3.59539E-004	6	..........a	-327.68
	50	5.1	-2.24868E-001	-2.74871E-001	-2.49869E-001	-3.78957E-009	-7.09955E-008	6.72059E-008	-2.75000E-001	3.55206E-004	6	..........a	-327.68
	52	5.3	-2.20846E-001	-2.70841E-001	-2.45844E-001	-2.56274E-009	-6.83004E-008	6.57377E-008	-2.71000E-001	3.62706E-004	6	..........a	-327.68
	54	5.5	-2.16872E-001	-2.66825E-001	-2.41848E-001	-1.14323E-009	-6.57821E-008	6.46389E-008	-2.67000E-001	3.48206E-004	6	..........a	-327.68
	56	5.7	-2.12863E-001	-2.62846E-001	-2.37854E-001	1.89274E-010	-6.33218E-008	6.35111E-008	-2.63000E-001	3.47873E-004	6	..........a	-327.68
	58	5.9	-2.08863E-001	-2.58847E-001	-2.33855E-001	1.54111E-009	-6.07065E-008	6.22476E-008	-2.59000E-001	3.50706E-004	6	..........a	-327.68
	60	6.1	-2.04831E-001	-2.54869E-001	-2.29850E-001	2.59658E-009	-5.83945E-008	6.09911E-008	-2.55000E-001	3.44039E-004	6	..........a	-327.68
	62	6.3	-2.00879E-001	-2.50859E-001	-2.25869E-001	3.89208E-009	-5.61086E-008	6.00006E-008	-2.51000E-001	3.49539E-004	6	..........a	-327.68
	64	6.5	-1.96878E-001	-2.46848E-001	-2.21863E-001	4.75986E-009	-5.40656E-008	5.88255E-008	-2.47000E-001	3.38373E-004	6	..........a	-327.68
	66	6.7	-1.92885E-001	-2.42812E-001	-2.17848E-001	5.89067E-009	-5.17587E-008	5.76493E-008	-2.43000E-001	3.48039E-004	6	..........a	-327.68
	68	6.9	-1.88795E-001	-2.38899E-001	-2.13847E-001	6.96347E-009	-4.96954E-008	5.66589E-008	-2.39000E-001	3.35539E-004	6	..........a	-327.68
	70	7.1	-1.84882E-001	-2.34839E-001	-2.09861E-001	8.15495E-009	-4.78978E-008	5.60528E-008	-2.35000E-001	3.36206E-004	6	..........a	-327.68
	72	7.3	-1.80776E-001	-2.30869E-001	-2.05822E-001	9.14075E-009	-4.61136E-008	5.52544E-008	-2.31000E-001	3.43873E-004	6	..........a	-327.68
	74	7.5	-1.76854E-001	-2.26840E-001	-2.01847E-001	9.94418E-009	-4.43831E-008	5.43273E-008	-2.27000E-001	3.38539E-004	6	..........a	-327.68
	76	7.7	-1.72826E-001	-2.22878E-001	-1.97852E-001	1.08013E-008	-4.25785E-008	5.33798E-008	-2.23000E-001	3.46873E-004	6	..........a	-327.68
	78	7.9	-1.68876E-001	-2.18859E-001	-1.93868E-001	1.19224E-008	-4.11670E-008	5.30894E-008	-2.19000E-001	3.37206E-004	6	..........a	-327.68
	80	8.1	-1.64717E-001	-2.14912E-001	-1.89815E-001	1.25602E-008	-3.96705E-008	5.22306E-008	-2.15000E-001	3.31039E-004	6	..........a	-327.68
	82	8.3	-1.60877E-001	-2.10846E-001	-1.85862E-001	1.34456E-008	-3.82306E-008	5.16762E-008	-2.11000E-001	3.28039E-004	6	..........a	-327.68
	84	8.5	-1.56770E-001	-2.06861E-001	-1.81815E-001	1.42467E-008	-3.69214E-008	5.11682E-008	-2.07000E-001	3.24706E-004	6	..........a	-327.68
	86	8.7	-1.52870E-001	-2.02838E-001	-1.77854E-001	1.52519E-008	-3.58646E-008	5.11165E-008	-2.03000E-001	3.37206E-004	6	..........a	-327.68
	88	8.9	-1.48821E-001	-1.98877E-001	-1.73849E-001	1.60046E-008	-3.43551E-008	5.03597E-008	-1.99000E-001	3.38373E-004	6	..........a	-327.68
	90	9.1	-1.44871E-001	-1.94860E-001	-1.69865E-001	1.66740E-008	-3.33483E-008	5.00224E-008	-1.95000E-001	3.35039E-004	6	..........a	-327.68
	92	9.3	-1.40858E-001	-1.90892E-001	-1.65875E-001	1.72714E-008	-3.24015E-008	4.96730E-008	-1.91000E-001	3.34539E-004	6	..........a	-327.68
	94	9.5	-1.36867E-001	-1.86854E-001	-1.61860E-001	1.80575E-008	-3.14388E-008	4.94963E-008	-1.87000E-001	3.30873E-004	6	..........a	-327.68
	96	9.7	-1.32786E-001	-1.82876E-001	-1.57831E-001	1.88576E-008	-3.04430E-008	4.93006E-008	-1.83000E-001	3.33706E-004	6	..........a	-327.68
	98	9.9	-1.28866E-001	-1.78841E-001	-1.53854E-001	1.93237E-008	-2.95555E-008	4.88792E-008	-1.79000E-001	3.27873E-004	6	..........a	-327.68
	100	10.1	-1.24826E-001	-1.74878E-001	-1.49852E-001	2.00038E-008	-2.89738E-008	4.89776E-008	-1.75000E-001	3.34706E-004	6	..........a	-327.68