Folder: EchemAnalysis_AMA/C-COM2 (part 11)

File: SWV_10Hz STD2 aptmch 081020_#9.DTA
EXPLAIN
TAG	SQUARE_WAVE
TITLE	LABEL	Square Wave Voltammetry	Test Identifier
DATE	LABEL	8/10/2020	Date
TIME	LABEL	13:02:58	Time
NOTES	NOTES	1	Notes...
	 STD2 aptmch 08102
PSTAT	PSTAT	REF600-24079	Potentiostat
VINIT	QUANT	-3.50000E-001	Initial E (V)
VFINAL	QUANT	-1.50000E-001	Final E (V)
STEPSIZE	QUANT	2.00000E+000	Step Size (mV)
TIMERRES	QUANT	3.33340E-005	&Timer Resolution
FREQUENCY	QUANT	1.00000E+001	Frequency (Hz)
PULSESIZE	QUANT	2.50000E+001	Pulse Size E (mV)
PULSEON	QUANT	1.00000E-001	Pulse &Time (s)
NOISEREJECT	TOGGLE	F	Noise Rejection
AREA	QUANT	2.00000E-002	Sample Area (cm^2)
IMODE	SELECTOR	1	I/E Range Mode
IRANGE	QUANT	1.00000E-003	Max Current (mA)
EQDELAY	IQUANT	10	Equil. Time (s)
IRCOMP	SELECTOR	0	IRComp
PFCOR	QUANT	5.00000E+001	PF Corr. (ohm)
CYCLES	IQUANT	101	C&ycles (#)
ELECTRODETYPE	SELECTOR	0	Electrode Type
STRIPPING	TOGGLE	F	Used for Stripping
POLARITY	TOGGLE	F	Signal Polarity
LINEFREQ	IQUANT	60	Line Frequency (Hz)
INTPERIOD	QUANT	3.3334E-005	Integration Period (s)
SEQUENCER	TOGGLE	TRUE	Run as Sequence
PSTATMODEL	IQUANT	4	Pstat Model
PSTATSECTION	LABEL	REF600-24079	Pstat Section
PSTATSERIALNO	LABEL	24079	Pstat Serial Number
CTRLMODE	IQUANT	1	Control Mode
ELECTROMETER	IQUANT	0	RE=0 or CS=1
IESTAB	IQUANT	2	I/E Stability
CASPEED	IQUANT	6	Control Amp Speed
CONVENTION	IQUANT	1	Current Convention
ICHRANGE	IQUANT	2	Ich Range
ICHRANGEMODE	TOGGLE	F	Ich Auto Range
ICHOFFSETENABLE	TOGGLE	F	Ich Offset Enable
ICHOFFSET	QUANT	0	Ich Offset (V)
ICHFILTER	IQUANT	2	Ich Filter
VCHRANGE	IQUANT	2	Vch Range
VCHRANGEMODE	TOGGLE	F	Vch Auto Range
VCHOFFSETENABLE	TOGGLE	F	Vch Offset Enable
VCHOFFSET	QUANT	0	Vch Offset (V)
VCHFILTER	IQUANT	2	Vch Filter
ACHRANGE	IQUANT	2	Ach Range
ACHOFFSETENABLE	TOGGLE	F	Ach Offset Enable
ACHOFFSET	QUANT	0	Ach Offset (V)
ACHFILTER	IQUANT	1	Ach Filter
IERANGELOWERLIMIT	IQUANT	1	I/E Range Lower Limit
IERANGEMODE	TOGGLE	F	I/E AutoRange
IERANGE	IQUANT	6	I/E Range
POSFEEDENABLE	TOGGLE	F	Positive Feedback IR Comp
POSFEEDRESISTANCE	QUANT	0	Positive Feedback Resistance (ohm)
ACHSELECT	IQUANT	0	Ach Select
SENSECABLEID	IQUANT	13	Sense Cable ID
PWRCABLEID	IQUANT	13	Power Cable ID
DCCALDATE	LABEL	6/30/2020	DC Calibration Date
ACCALDATE	LABEL	6/30/2020	AC Calibration Date
THERMOSELECT	IQUANT	1	Thermo Select
FRAMEWORKVERSION	LABEL	7.8.2	Framework Version
INSTRUMENTVERSION	LABEL	4.40	Instrument Version
CURVE	TABLE	101
	Pt	T	Vfwd	Vrev	Vstep	Ifwd	Irev	Idif	Sig	Ach	IERange	Over	Temp
	#	s	V	V	V	A	A	A	V	V	#	bits	deg C
	0	0.1	-3.24858E-001	-3.74876E-001	-3.49867E-001	-8.26513E-009	-3.82590E-008	2.99938E-008	-3.75000E-001	4.40706E-004	6	..........a	-327.68
	2	0.3	-3.20886E-001	-3.70766E-001	-3.45826E-001	6.16937E-009	-3.14351E-008	3.76045E-008	-3.71000E-001	4.15873E-004	6	..........a	-327.68
	4	0.5	-3.16726E-001	-3.66892E-001	-3.41809E-001	8.33731E-009	-2.95502E-008	3.78875E-008	-3.67000E-001	4.08373E-004	6	..........a	-327.68
	6	0.7	-3.12874E-001	-3.62785E-001	-3.37830E-001	9.49146E-009	-2.83047E-008	3.77961E-008	-3.63000E-001	4.04206E-004	6	..........a	-327.68
	8	0.9	-3.08768E-001	-3.58848E-001	-3.33808E-001	1.00745E-008	-2.74746E-008	3.75491E-008	-3.59000E-001	3.94206E-004	6	..........a	-327.68
	10	1.1	-3.04831E-001	-3.54809E-001	-3.29820E-001	1.06333E-008	-2.63434E-008	3.69767E-008	-3.55000E-001	4.10039E-004	6	..........a	-327.68
	12	1.3	-3.00860E-001	-3.50863E-001	-3.25861E-001	1.14060E-008	-2.56377E-008	3.70437E-008	-3.51000E-001	4.09206E-004	6	..........a	-327.68
	14	1.5	-2.96880E-001	-3.46843E-001	-3.21862E-001	1.20498E-008	-2.49816E-008	3.70314E-008	-3.47000E-001	4.23206E-004	6	..........a	-327.68
	16	1.7	-2.92731E-001	-3.42837E-001	-3.17784E-001	1.27322E-008	-2.46092E-008	3.73414E-008	-3.43000E-001	3.98706E-004	6	..........a	-327.68
	18	1.9	-2.88899E-001	-3.38796E-001	-3.13847E-001	1.34396E-008	-2.40308E-008	3.74704E-008	-3.39000E-001	4.27373E-004	6	..........a	-327.68
	20	2.1	-2.84782E-001	-3.34854E-001	-3.09818E-001	1.39274E-008	-2.37728E-008	3.77001E-008	-3.35000E-001	4.23539E-004	6	..........a	-327.68
	22	2.3	-2.80865E-001	-3.30791E-001	-3.05828E-001	1.47948E-008	-2.34951E-008	3.82899E-008	-3.31000E-001	4.19539E-004	6	..........a	-327.68
	24	2.5	-2.76828E-001	-3.26865E-001	-3.01847E-001	1.55059E-008	-2.31160E-008	3.86219E-008	-3.27000E-001	4.28873E-004	6	..........a	-327.68
	26	2.7	-2.72855E-001	-3.22836E-001	-2.97846E-001	1.62266E-008	-2.31420E-008	3.93687E-008	-3.23000E-001	4.20206E-004	6	..........a	-327.68
	28	2.9	-2.68877E-001	-3.18879E-001	-2.93878E-001	1.68207E-008	-2.30007E-008	3.98214E-008	-3.19000E-001	4.25039E-004	6	..........a	-327.68
	30	3.1	-2.64840E-001	-3.14842E-001	-2.89841E-001	1.72995E-008	-2.30040E-008	4.03035E-008	-3.15000E-001	4.25206E-004	6	..........a	-327.68
	32	3.3	-2.60791E-001	-3.10845E-001	-2.85818E-001	1.80615E-008	-2.29467E-008	4.10082E-008	-3.11000E-001	4.23706E-004	6	..........a	-327.68
	34	3.5	-2.56837E-001	-3.06800E-001	-2.81818E-001	1.85063E-008	-2.29910E-008	4.14973E-008	-3.07000E-001	4.27539E-004	6	..........a	-327.68
	36	3.7	-2.52832E-001	-3.02880E-001	-2.77856E-001	1.89127E-008	-2.28150E-008	4.17276E-008	-3.03000E-001	4.20539E-004	6	..........a	-327.68
	38	3.9	-2.48869E-001	-2.98834E-001	-2.73851E-001	1.91547E-008	-2.29400E-008	4.20947E-008	-2.99000E-001	4.18206E-004	6	..........a	-327.68
	40	4.1	-2.44886E-001	-2.94886E-001	-2.69886E-001	1.93287E-008	-2.28827E-008	4.22114E-008	-2.95000E-001	4.30539E-004	6	..........a	-327.68
	42	4.3	-2.40849E-001	-2.90783E-001	-2.65816E-001	1.95481E-008	-2.28347E-008	4.23827E-008	-2.91000E-001	4.26206E-004	6	..........a	-327.68
	44	4.5	-2.36847E-001	-2.86840E-001	-2.61844E-001	1.93447E-008	-2.29090E-008	4.22537E-008	-2.87000E-001	4.06039E-004	6	..........a	-327.68
	46	4.7	-2.32833E-001	-2.82788E-001	-2.57810E-001	1.94037E-008	-2.24849E-008	4.18887E-008	-2.83000E-001	4.10039E-004	6	..........a	-327.68
	48	4.9	-2.28806E-001	-2.78848E-001	-2.53827E-001	1.92790E-008	-2.21719E-008	4.14509E-008	-2.79000E-001	4.08206E-004	6	..........a	-327.68
	50	5.1	-2.24859E-001	-2.74828E-001	-2.49844E-001	1.91627E-008	-2.18042E-008	4.09669E-008	-2.75000E-001	4.15373E-004	6	..........a	-327.68
	52	5.3	-2.20867E-001	-2.70884E-001	-2.45875E-001	1.90537E-008	-2.14425E-008	4.04962E-008	-2.71000E-001	4.27539E-004	6	..........a	-327.68
	54	5.5	-2.16869E-001	-2.66768E-001	-2.41818E-001	1.88176E-008	-2.07514E-008	3.95690E-008	-2.67000E-001	4.19039E-004	6	..........a	-327.68
	56	5.7	-2.12839E-001	-2.62884E-001	-2.37861E-001	1.86220E-008	-2.01420E-008	3.87639E-008	-2.63000E-001	4.21039E-004	6	..........a	-327.68
	58	5.9	-2.08841E-001	-2.58788E-001	-2.33814E-001	1.85333E-008	-1.95092E-008	3.80425E-008	-2.59000E-001	4.27206E-004	6	..........a	-327.68
	60	6.1	-2.04788E-001	-2.54890E-001	-2.29839E-001	1.84266E-008	-1.89462E-008	3.73728E-008	-2.55000E-001	4.33873E-004	6	..........a	-327.68
	62	6.3	-2.00857E-001	-2.50821E-001	-2.25839E-001	1.83906E-008	-1.81651E-008	3.65556E-008	-2.51000E-001	4.16706E-004	6	..........a	-327.68
	64	6.5	-1.96863E-001	-2.46875E-001	-2.21869E-001	1.83482E-008	-1.78500E-008	3.61983E-008	-2.47000E-001	4.12039E-004	6	..........a	-327.68
	66	6.7	-1.92874E-001	-2.42767E-001	-2.17821E-001	1.80775E-008	-1.72313E-008	3.53088E-008	-2.43000E-001	4.22206E-004	6	..........a	-327.68
	68	6.9	-1.88760E-001	-2.38868E-001	-2.13814E-001	1.81446E-008	-1.66162E-008	3.47608E-008	-2.39000E-001	4.29873E-004	6	..........a	-327.68
	70	7.1	-1.84854E-001	-2.34787E-001	-2.09820E-001	1.81982E-008	-1.63748E-008	3.45731E-008	-2.35000E-001	4.25373E-004	6	..........a	-327.68
	72	7.3	-1.80799E-001	-2.30836E-001	-2.05817E-001	1.79502E-008	-1.58434E-008	3.37936E-008	-2.31000E-001	4.13706E-004	6	..........a	-327.68
	74	7.5	-1.76829E-001	-2.26795E-001	-2.01812E-001	1.80692E-008	-1.54490E-008	3.35183E-008	-2.27000E-001	4.22039E-004	6	..........a	-327.68
	76	7.7	-1.72830E-001	-2.22859E-001	-1.97845E-001	1.79862E-008	-1.51220E-008	3.31082E-008	-2.23000E-001	4.25873E-004	6	..........a	-327.68
	78	7.9	-1.68858E-001	-2.18837E-001	-1.93847E-001	1.82279E-008	-1.49123E-008	3.31402E-008	-2.19000E-001	4.12206E-004	6	..........a	-327.68
	80	8.1	-1.64727E-001	-2.14822E-001	-1.89774E-001	1.81886E-008	-1.46446E-008	3.28332E-008	-2.15000E-001	4.15206E-004	6	..........a	-327.68
	82	8.3	-1.60886E-001	-2.10804E-001	-1.85845E-001	1.83239E-008	-1.44626E-008	3.27865E-008	-2.11000E-001	4.11539E-004	6	..........a	-327.68
	84	8.5	-1.56796E-001	-2.06854E-001	-1.81825E-001	1.83459E-008	-1.39822E-008	3.23281E-008	-2.07000E-001	4.04539E-004	6	..........a	-327.68
	86	8.7	-1.52863E-001	-2.02789E-001	-1.77826E-001	1.82329E-008	-1.36682E-008	3.19011E-008	-2.03000E-001	4.08706E-004	6	..........a	-327.68
	88	8.9	-1.48843E-001	-1.98872E-001	-1.73857E-001	1.84769E-008	-1.34771E-008	3.19541E-008	-1.99000E-001	4.20873E-004	6	..........a	-327.68
	90	9.1	-1.44848E-001	-1.94827E-001	-1.69837E-001	1.86066E-008	-1.32504E-008	3.18571E-008	-1.95000E-001	4.18873E-004	6	..........a	-327.68
	92	9.3	-1.40858E-001	-1.90861E-001	-1.65860E-001	1.86053E-008	-1.29751E-008	3.15804E-008	-1.91000E-001	4.33706E-004	6	..........a	-327.68
	94	9.5	-1.36843E-001	-1.86783E-001	-1.61813E-001	1.86750E-008	-1.30347E-008	3.17097E-008	-1.87000E-001	4.21873E-004	6	..........a	-327.68
	96	9.7	-1.32777E-001	-1.82828E-001	-1.57802E-001	1.89420E-008	-1.27250E-008	3.16670E-008	-1.83000E-001	4.06873E-004	6	..........a	-327.68
	98	9.9	-1.28809E-001	-1.78781E-001	-1.53795E-001	1.89660E-008	-1.26827E-008	3.16487E-008	-1.79000E-001	4.19039E-004	6	..........a	-327.68
	100	10.1	-1.24806E-001	-1.74850E-001	-1.49828E-001	1.89987E-008	-1.25640E-008	3.15627E-008	-1.75000E-001	4.30206E-004	6	..........a	-327.68