Folder: EchemAnalysis_AMA/C-COM1 (part 2)

File: SWV_10Hz STD1 10  fgml 081020_#9.DTA
EXPLAIN
TAG	SQUARE_WAVE
TITLE	LABEL	Square Wave Voltammetry	Test Identifier
DATE	LABEL	8/10/2020	Date
TIME	LABEL	17:32:09	Time
NOTES	NOTES	1	Notes...
	 STD1, 10  fg/mL 08102
PSTAT	PSTAT	REF600-24079	Potentiostat
VINIT	QUANT	-3.50000E-001	Initial E (V)
VFINAL	QUANT	-1.50000E-001	Final E (V)
STEPSIZE	QUANT	2.00000E+000	Step Size (mV)
TIMERRES	QUANT	3.33340E-005	&Timer Resolution
FREQUENCY	QUANT	1.00000E+001	Frequency (Hz)
PULSESIZE	QUANT	2.50000E+001	Pulse Size E (mV)
PULSEON	QUANT	1.00000E-001	Pulse &Time (s)
NOISEREJECT	TOGGLE	F	Noise Rejection
AREA	QUANT	2.00000E-002	Sample Area (cm^2)
IMODE	SELECTOR	1	I/E Range Mode
IRANGE	QUANT	1.00000E-003	Max Current (mA)
EQDELAY	IQUANT	10	Equil. Time (s)
IRCOMP	SELECTOR	0	IRComp
PFCOR	QUANT	5.00000E+001	PF Corr. (ohm)
CYCLES	IQUANT	101	C&ycles (#)
ELECTRODETYPE	SELECTOR	0	Electrode Type
STRIPPING	TOGGLE	F	Used for Stripping
POLARITY	TOGGLE	F	Signal Polarity
LINEFREQ	IQUANT	60	Line Frequency (Hz)
INTPERIOD	QUANT	3.3334E-005	Integration Period (s)
SEQUENCER	TOGGLE	TRUE	Run as Sequence
PSTATMODEL	IQUANT	4	Pstat Model
PSTATSECTION	LABEL	REF600-24079	Pstat Section
PSTATSERIALNO	LABEL	24079	Pstat Serial Number
CTRLMODE	IQUANT	1	Control Mode
ELECTROMETER	IQUANT	0	RE=0 or CS=1
IESTAB	IQUANT	2	I/E Stability
CASPEED	IQUANT	6	Control Amp Speed
CONVENTION	IQUANT	1	Current Convention
ICHRANGE	IQUANT	2	Ich Range
ICHRANGEMODE	TOGGLE	F	Ich Auto Range
ICHOFFSETENABLE	TOGGLE	F	Ich Offset Enable
ICHOFFSET	QUANT	0	Ich Offset (V)
ICHFILTER	IQUANT	2	Ich Filter
VCHRANGE	IQUANT	2	Vch Range
VCHRANGEMODE	TOGGLE	F	Vch Auto Range
VCHOFFSETENABLE	TOGGLE	F	Vch Offset Enable
VCHOFFSET	QUANT	0	Vch Offset (V)
VCHFILTER	IQUANT	2	Vch Filter
ACHRANGE	IQUANT	2	Ach Range
ACHOFFSETENABLE	TOGGLE	F	Ach Offset Enable
ACHOFFSET	QUANT	0	Ach Offset (V)
ACHFILTER	IQUANT	1	Ach Filter
IERANGELOWERLIMIT	IQUANT	1	I/E Range Lower Limit
IERANGEMODE	TOGGLE	F	I/E AutoRange
IERANGE	IQUANT	6	I/E Range
POSFEEDENABLE	TOGGLE	F	Positive Feedback IR Comp
POSFEEDRESISTANCE	QUANT	0	Positive Feedback Resistance (ohm)
ACHSELECT	IQUANT	0	Ach Select
SENSECABLEID	IQUANT	13	Sense Cable ID
PWRCABLEID	IQUANT	13	Power Cable ID
DCCALDATE	LABEL	6/30/2020	DC Calibration Date
ACCALDATE	LABEL	6/30/2020	AC Calibration Date
THERMOSELECT	IQUANT	1	Thermo Select
FRAMEWORKVERSION	LABEL	7.8.2	Framework Version
INSTRUMENTVERSION	LABEL	4.40	Instrument Version
CURVE	TABLE	101
	Pt	T	Vfwd	Vrev	Vstep	Ifwd	Irev	Idif	Sig	Ach	IERange	Over	Temp
	#	s	V	V	V	A	A	A	V	V	#	bits	deg C
	0	0.1	-3.24996E-001	-3.74936E-001	-3.49966E-001	-1.23780E-007	-2.33999E-007	1.10219E-007	-3.75000E-001	4.36539E-004	6	..........a	-327.68
	2	0.3	-3.20948E-001	-3.70843E-001	-3.45896E-001	-1.05662E-007	-2.20159E-007	1.14497E-007	-3.71000E-001	4.50039E-004	6	..........a	-327.68
	4	0.5	-3.17014E-001	-3.66914E-001	-3.41964E-001	-9.92770E-008	-2.10803E-007	1.11526E-007	-3.67000E-001	4.45706E-004	6	..........a	-327.68
	6	0.7	-3.13017E-001	-3.62883E-001	-3.37950E-001	-9.40600E-008	-2.02328E-007	1.08268E-007	-3.63000E-001	4.32039E-004	6	..........a	-327.68
	8	0.9	-3.08961E-001	-3.58937E-001	-3.33949E-001	-8.87420E-008	-1.94168E-007	1.05426E-007	-3.59000E-001	4.36539E-004	6	..........a	-327.68
	10	1.1	-3.05026E-001	-3.54911E-001	-3.29968E-001	-8.37687E-008	-1.86520E-007	1.02752E-007	-3.55000E-001	4.31706E-004	6	..........a	-327.68
	12	1.3	-3.01004E-001	-3.50925E-001	-3.25964E-001	-7.91482E-008	-1.78880E-007	9.97317E-008	-3.51000E-001	4.45706E-004	6	..........a	-327.68
	14	1.5	-2.96973E-001	-3.46932E-001	-3.21952E-001	-7.44839E-008	-1.71781E-007	9.72974E-008	-3.47000E-001	4.42206E-004	6	..........a	-327.68
	16	1.7	-2.92929E-001	-3.42895E-001	-3.17912E-001	-7.00717E-008	-1.65140E-007	9.50688E-008	-3.43000E-001	4.50873E-004	6	..........a	-327.68
	18	1.9	-2.88986E-001	-3.38886E-001	-3.13936E-001	-6.57578E-008	-1.58354E-007	9.25958E-008	-3.39000E-001	4.38873E-004	6	..........a	-327.68
	20	2.1	-2.84970E-001	-3.34907E-001	-3.09939E-001	-6.16103E-008	-1.52419E-007	9.08089E-008	-3.35000E-001	4.37206E-004	6	..........a	-327.68
	22	2.3	-2.81031E-001	-3.30889E-001	-3.05960E-001	-5.74394E-008	-1.46163E-007	8.87233E-008	-3.31000E-001	4.52039E-004	6	..........a	-327.68
	24	2.5	-2.76995E-001	-3.26943E-001	-3.01969E-001	-5.35329E-008	-1.40655E-007	8.71217E-008	-3.27000E-001	4.26373E-004	6	..........a	-327.68
	26	2.7	-2.72973E-001	-3.22926E-001	-2.97950E-001	-4.98734E-008	-1.34894E-007	8.50205E-008	-3.23000E-001	4.37539E-004	6	..........a	-327.68
	28	2.9	-2.68959E-001	-3.18891E-001	-2.93925E-001	-4.61079E-008	-1.29625E-007	8.35166E-008	-3.19000E-001	4.28039E-004	6	..........a	-327.68
	30	3.1	-2.65053E-001	-3.14935E-001	-2.89994E-001	-4.26078E-008	-1.24480E-007	8.18724E-008	-3.15000E-001	4.37873E-004	6	..........a	-327.68
	32	3.3	-2.60982E-001	-3.10922E-001	-2.85952E-001	-3.91881E-008	-1.19646E-007	8.04582E-008	-3.11000E-001	4.32873E-004	6	..........a	-327.68
	34	3.5	-2.56995E-001	-3.06896E-001	-2.81946E-001	-3.59857E-008	-1.15007E-007	7.90217E-008	-3.07000E-001	4.31039E-004	6	..........a	-327.68
	36	3.7	-2.53005E-001	-3.02937E-001	-2.77971E-001	-3.29066E-008	-1.10850E-007	7.79433E-008	-3.03000E-001	4.42206E-004	6	..........a	-327.68
	38	3.9	-2.48981E-001	-2.98933E-001	-2.73957E-001	-2.96679E-008	-1.06205E-007	7.65374E-008	-2.99000E-001	4.33539E-004	6	..........a	-327.68
	40	4.1	-2.44955E-001	-2.94926E-001	-2.69941E-001	-2.70695E-008	-1.02322E-007	7.52526E-008	-2.95000E-001	4.42373E-004	6	..........a	-327.68
	42	4.3	-2.41070E-001	-2.90870E-001	-2.65970E-001	-2.43092E-008	-9.84836E-008	7.41744E-008	-2.91000E-001	4.28373E-004	6	..........a	-327.68
	44	4.5	-2.36981E-001	-2.86924E-001	-2.61952E-001	-2.17819E-008	-9.46335E-008	7.28516E-008	-2.87000E-001	4.33539E-004	6	..........a	-327.68
	46	4.7	-2.33000E-001	-2.82885E-001	-2.57942E-001	-1.93085E-008	-9.10080E-008	7.16995E-008	-2.83000E-001	4.34873E-004	6	..........a	-327.68
	48	4.9	-2.29006E-001	-2.78953E-001	-2.53979E-001	-1.71576E-008	-8.74319E-008	7.02743E-008	-2.79000E-001	4.40706E-004	6	..........a	-327.68
	50	5.1	-2.24999E-001	-2.74930E-001	-2.49965E-001	-1.48633E-008	-8.40601E-008	6.91968E-008	-2.75000E-001	4.45373E-004	6	..........a	-327.68
	52	5.3	-2.20970E-001	-2.70918E-001	-2.45944E-001	-1.27650E-008	-8.09897E-008	6.82247E-008	-2.71000E-001	4.29873E-004	6	..........a	-327.68
	54	5.5	-2.17078E-001	-2.66842E-001	-2.41960E-001	-1.07635E-008	-7.75543E-008	6.67908E-008	-2.67000E-001	4.54706E-004	6	..........a	-327.68
	56	5.7	-2.12984E-001	-2.62894E-001	-2.37939E-001	-9.07924E-009	-7.44932E-008	6.54140E-008	-2.63000E-001	4.51206E-004	6	..........a	-327.68
	58	5.9	-2.08991E-001	-2.58906E-001	-2.33949E-001	-7.16633E-009	-7.15162E-008	6.43499E-008	-2.59000E-001	4.42373E-004	6	..........a	-327.68
	60	6.1	-2.05002E-001	-2.54923E-001	-2.29963E-001	-5.43544E-009	-6.86452E-008	6.32097E-008	-2.55000E-001	4.43039E-004	6	..........a	-327.68
	62	6.3	-2.01019E-001	-2.50913E-001	-2.25966E-001	-3.80057E-009	-6.60645E-008	6.22639E-008	-2.51000E-001	4.43539E-004	6	..........a	-327.68
	64	6.5	-1.96999E-001	-2.46911E-001	-2.21955E-001	-2.14102E-009	-6.33542E-008	6.12131E-008	-2.47000E-001	4.52039E-004	6	..........a	-327.68
	66	6.7	-1.92993E-001	-2.42851E-001	-2.17922E-001	-5.90158E-010	-6.06555E-008	6.00653E-008	-2.43000E-001	4.32206E-004	6	..........a	-327.68
	68	6.9	-1.89013E-001	-2.38894E-001	-2.13954E-001	7.74682E-010	-5.81792E-008	5.89538E-008	-2.39000E-001	4.26706E-004	6	..........a	-327.68
	70	7.1	-1.85027E-001	-2.34882E-001	-2.09955E-001	1.98950E-009	-5.57708E-008	5.77603E-008	-2.35000E-001	4.17206E-004	6	..........a	-327.68
	72	7.3	-1.81011E-001	-2.30912E-001	-2.05961E-001	3.33667E-009	-5.35856E-008	5.69222E-008	-2.31000E-001	4.17373E-004	6	..........a	-327.68
	74	7.5	-1.77025E-001	-2.26906E-001	-2.01966E-001	4.51616E-009	-5.13613E-008	5.58775E-008	-2.27000E-001	4.21206E-004	6	..........a	-327.68
	76	7.7	-1.73028E-001	-2.22930E-001	-1.97979E-001	5.78732E-009	-4.96664E-008	5.54537E-008	-2.23000E-001	4.17873E-004	6	..........a	-327.68
	78	7.9	-1.69009E-001	-2.18937E-001	-1.93973E-001	6.97914E-009	-4.75208E-008	5.44999E-008	-2.19000E-001	4.22373E-004	6	..........a	-327.68
	80	8.1	-1.64875E-001	-2.14885E-001	-1.89880E-001	8.18496E-009	-4.57789E-008	5.39639E-008	-2.15000E-001	4.15873E-004	6	..........a	-327.68
	82	8.3	-1.60994E-001	-2.10908E-001	-1.85951E-001	9.42578E-009	-4.40307E-008	5.34565E-008	-2.11000E-001	4.20873E-004	6	..........a	-327.68
	84	8.5	-1.56973E-001	-2.06905E-001	-1.81939E-001	1.02572E-008	-4.23585E-008	5.26157E-008	-2.07000E-001	4.13206E-004	6	..........a	-327.68
	86	8.7	-1.53036E-001	-2.02896E-001	-1.77966E-001	1.13747E-008	-4.06393E-008	5.20140E-008	-2.03000E-001	4.08706E-004	6	..........a	-327.68
	88	8.9	-1.49001E-001	-1.98950E-001	-1.73976E-001	1.24205E-008	-3.92911E-008	5.17116E-008	-1.99000E-001	4.09039E-004	6	..........a	-327.68
	90	9.1	-1.45004E-001	-1.94926E-001	-1.69965E-001	1.33606E-008	-3.77426E-008	5.11032E-008	-1.95000E-001	4.14373E-004	6	..........a	-327.68
	92	9.3	-1.40990E-001	-1.90980E-001	-1.65985E-001	1.44131E-008	-3.64304E-008	5.08435E-008	-1.91000E-001	4.25373E-004	6	..........a	-327.68
	94	9.5	-1.37051E-001	-1.86873E-001	-1.61962E-001	1.52749E-008	-3.50429E-008	5.03177E-008	-1.87000E-001	4.16706E-004	6	..........a	-327.68
	96	9.7	-1.32914E-001	-1.82937E-001	-1.57926E-001	1.60103E-008	-3.38851E-008	4.98953E-008	-1.83000E-001	4.12373E-004	6	..........a	-327.68
	98	9.9	-1.28994E-001	-1.78887E-001	-1.53941E-001	1.67547E-008	-3.27356E-008	4.94903E-008	-1.79000E-001	4.15873E-004	6	..........a	-327.68
	100	10.1	-1.25016E-001	-1.74946E-001	-1.49981E-001	1.76582E-008	-3.16948E-008	4.93529E-008	-1.75000E-001	4.23039E-004	6	..........a	-327.68

File: SWV_10Hz STD1 10  fgml 081020_#10.DTA
EXPLAIN
TAG	SQUARE_WAVE
TITLE	LABEL	Square Wave Voltammetry	Test Identifier
DATE	LABEL	8/10/2020	Date
TIME	LABEL	17:32:29	Time
NOTES	NOTES	1	Notes...
	 STD1, 10  fg/mL 08102
PSTAT	PSTAT	REF600-24079	Potentiostat
VINIT	QUANT	-3.50000E-001	Initial E (V)
VFINAL	QUANT	-1.50000E-001	Final E (V)
STEPSIZE	QUANT	2.00000E+000	Step Size (mV)
TIMERRES	QUANT	3.33340E-005	&Timer Resolution
FREQUENCY	QUANT	1.00000E+001	Frequency (Hz)
PULSESIZE	QUANT	2.50000E+001	Pulse Size E (mV)
PULSEON	QUANT	1.00000E-001	Pulse &Time (s)
NOISEREJECT	TOGGLE	F	Noise Rejection
AREA	QUANT	2.00000E-002	Sample Area (cm^2)
IMODE	SELECTOR	1	I/E Range Mode
IRANGE	QUANT	1.00000E-003	Max Current (mA)
EQDELAY	IQUANT	10	Equil. Time (s)
IRCOMP	SELECTOR	0	IRComp
PFCOR	QUANT	5.00000E+001	PF Corr. (ohm)
CYCLES	IQUANT	101	C&ycles (#)
ELECTRODETYPE	SELECTOR	0	Electrode Type
STRIPPING	TOGGLE	F	Used for Stripping
POLARITY	TOGGLE	F	Signal Polarity
LINEFREQ	IQUANT	60	Line Frequency (Hz)
INTPERIOD	QUANT	3.3334E-005	Integration Period (s)
SEQUENCER	TOGGLE	TRUE	Run as Sequence
PSTATMODEL	IQUANT	4	Pstat Model
PSTATSECTION	LABEL	REF600-24079	Pstat Section
PSTATSERIALNO	LABEL	24079	Pstat Serial Number
CTRLMODE	IQUANT	1	Control Mode
ELECTROMETER	IQUANT	0	RE=0 or CS=1
IESTAB	IQUANT	2	I/E Stability
CASPEED	IQUANT	6	Control Amp Speed
CONVENTION	IQUANT	1	Current Convention
ICHRANGE	IQUANT	2	Ich Range
ICHRANGEMODE	TOGGLE	F	Ich Auto Range
ICHOFFSETENABLE	TOGGLE	F	Ich Offset Enable
ICHOFFSET	QUANT	0	Ich Offset (V)
ICHFILTER	IQUANT	2	Ich Filter
VCHRANGE	IQUANT	2	Vch Range
VCHRANGEMODE	TOGGLE	F	Vch Auto Range
VCHOFFSETENABLE	TOGGLE	F	Vch Offset Enable
VCHOFFSET	QUANT	0	Vch Offset (V)
VCHFILTER	IQUANT	2	Vch Filter
ACHRANGE	IQUANT	2	Ach Range
ACHOFFSETENABLE	TOGGLE	F	Ach Offset Enable
ACHOFFSET	QUANT	0	Ach Offset (V)
ACHFILTER	IQUANT	1	Ach Filter
IERANGELOWERLIMIT	IQUANT	1	I/E Range Lower Limit
IERANGEMODE	TOGGLE	F	I/E AutoRange
IERANGE	IQUANT	6	I/E Range
POSFEEDENABLE	TOGGLE	F	Positive Feedback IR Comp
POSFEEDRESISTANCE	QUANT	0	Positive Feedback Resistance (ohm)
ACHSELECT	IQUANT	0	Ach Select
SENSECABLEID	IQUANT	13	Sense Cable ID
PWRCABLEID	IQUANT	13	Power Cable ID
DCCALDATE	LABEL	6/30/2020	DC Calibration Date
ACCALDATE	LABEL	6/30/2020	AC Calibration Date
THERMOSELECT	IQUANT	1	Thermo Select
FRAMEWORKVERSION	LABEL	7.8.2	Framework Version
INSTRUMENTVERSION	LABEL	4.40	Instrument Version
CURVE	TABLE	101
	Pt	T	Vfwd	Vrev	Vstep	Ifwd	Irev	Idif	Sig	Ach	IERange	Over	Temp
	#	s	V	V	V	A	A	A	V	V	#	bits	deg C
	0	0.1	-3.24974E-001	-3.74940E-001	-3.49957E-001	-1.24958E-007	-2.35236E-007	1.10278E-007	-3.75000E-001	4.08373E-004	6	..........a	-327.68
	2	0.3	-3.20932E-001	-3.70842E-001	-3.45887E-001	-1.06787E-007	-2.21368E-007	1.14581E-007	-3.71000E-001	4.15873E-004	6	..........a	-327.68
	4	0.5	-3.16995E-001	-3.66920E-001	-3.41958E-001	-1.00451E-007	-2.11826E-007	1.11375E-007	-3.67000E-001	4.05873E-004	6	..........a	-327.68
	6	0.7	-3.12997E-001	-3.62866E-001	-3.37931E-001	-9.51875E-008	-2.03508E-007	1.08320E-007	-3.63000E-001	3.93373E-004	6	..........a	-327.68
	8	0.9	-3.08981E-001	-3.58929E-001	-3.33955E-001	-8.98625E-008	-1.95392E-007	1.05529E-007	-3.59000E-001	3.86539E-004	6	..........a	-327.68
	10	1.1	-3.05014E-001	-3.54914E-001	-3.29964E-001	-8.49402E-008	-1.87623E-007	1.02682E-007	-3.55000E-001	3.89539E-004	6	..........a	-327.68
	12	1.3	-3.00983E-001	-3.50934E-001	-3.25958E-001	-7.99919E-008	-1.80188E-007	1.00196E-007	-3.51000E-001	4.11539E-004	6	..........a	-327.68
	14	1.5	-2.96958E-001	-3.46937E-001	-3.21947E-001	-7.53687E-008	-1.73051E-007	9.76828E-008	-3.47000E-001	4.13706E-004	6	..........a	-327.68
	16	1.7	-2.92979E-001	-3.42903E-001	-3.17941E-001	-7.08521E-008	-1.66327E-007	9.54752E-008	-3.43000E-001	4.22206E-004	6	..........a	-327.68
	18	1.9	-2.88992E-001	-3.38892E-001	-3.13942E-001	-6.64882E-008	-1.59648E-007	9.31598E-008	-3.39000E-001	4.08873E-004	6	..........a	-327.68
	20	2.1	-2.84981E-001	-3.34903E-001	-3.09942E-001	-6.22853E-008	-1.53303E-007	9.10172E-008	-3.35000E-001	4.16039E-004	6	..........a	-327.68
	22	2.3	-2.81036E-001	-3.30892E-001	-3.05964E-001	-5.83772E-008	-1.47233E-007	8.88563E-008	-3.31000E-001	4.20373E-004	6	..........a	-327.68
	24	2.5	-2.76963E-001	-3.26944E-001	-3.01953E-001	-5.42453E-008	-1.41598E-007	8.73524E-008	-3.27000E-001	4.13706E-004	6	..........a	-327.68
	26	2.7	-2.72954E-001	-3.22925E-001	-2.97940E-001	-5.05638E-008	-1.35793E-007	8.52288E-008	-3.23000E-001	4.03873E-004	6	..........a	-327.68
	28	2.9	-2.68948E-001	-3.18895E-001	-2.93922E-001	-4.68630E-008	-1.30607E-007	8.37440E-008	-3.19000E-001	4.11706E-004	6	..........a	-327.68
	30	3.1	-2.65049E-001	-3.14936E-001	-2.89993E-001	-4.35060E-008	-1.25448E-007	8.19424E-008	-3.15000E-001	4.07873E-004	6	..........a	-327.68
	32	3.3	-2.60970E-001	-3.10896E-001	-2.85933E-001	-3.99328E-008	-1.20446E-007	8.05132E-008	-3.11000E-001	4.09873E-004	6	..........a	-327.68
	34	3.5	-2.56982E-001	-3.06888E-001	-2.81935E-001	-3.65011E-008	-1.15822E-007	7.93207E-008	-3.07000E-001	4.12539E-004	6	..........a	-327.68
	36	3.7	-2.52987E-001	-3.02943E-001	-2.77965E-001	-3.33393E-008	-1.11472E-007	7.81329E-008	-3.03000E-001	4.05373E-004	6	..........a	-327.68
	38	3.9	-2.48968E-001	-2.98922E-001	-2.73945E-001	-3.04660E-008	-1.07087E-007	7.66214E-008	-2.99000E-001	4.12039E-004	6	..........a	-327.68
	40	4.1	-2.44948E-001	-2.94919E-001	-2.69934E-001	-2.73439E-008	-1.02767E-007	7.54236E-008	-2.95000E-001	4.07706E-004	6	..........a	-327.68
	42	4.3	-2.41063E-001	-2.90860E-001	-2.65961E-001	-2.48316E-008	-9.90800E-008	7.42484E-008	-2.91000E-001	4.17039E-004	6	..........a	-327.68
	44	4.5	-2.36954E-001	-2.86918E-001	-2.61936E-001	-2.21179E-008	-9.53922E-008	7.32743E-008	-2.87000E-001	4.06539E-004	6	..........a	-327.68
	46	4.7	-2.33002E-001	-2.82879E-001	-2.57941E-001	-1.97456E-008	-9.18104E-008	7.20648E-008	-2.83000E-001	4.09206E-004	6	..........a	-327.68
	48	4.9	-2.28978E-001	-2.78938E-001	-2.53958E-001	-1.70603E-008	-8.79463E-008	7.08860E-008	-2.79000E-001	4.14039E-004	6	..........a	-327.68
	50	5.1	-2.24988E-001	-2.74913E-001	-2.49951E-001	-1.52977E-008	-8.45732E-008	6.92755E-008	-2.75000E-001	4.02873E-004	6	..........a	-327.68
	52	5.3	-2.20958E-001	-2.70927E-001	-2.45943E-001	-1.31208E-008	-8.12431E-008	6.81223E-008	-2.71000E-001	4.08539E-004	6	..........a	-327.68
	54	5.5	-2.17093E-001	-2.66842E-001	-2.41968E-001	-1.09821E-008	-7.81560E-008	6.71739E-008	-2.67000E-001	4.09373E-004	6	..........a	-327.68
	56	5.7	-2.12937E-001	-2.62901E-001	-2.37919E-001	-9.20159E-009	-7.49793E-008	6.57777E-008	-2.63000E-001	4.25039E-004	6	..........a	-327.68
	58	5.9	-2.08966E-001	-2.58892E-001	-2.33929E-001	-7.28101E-009	-7.17342E-008	6.44532E-008	-2.59000E-001	4.25706E-004	6	..........a	-327.68
	60	6.1	-2.04969E-001	-2.54918E-001	-2.29944E-001	-5.61080E-009	-6.88708E-008	6.32601E-008	-2.55000E-001	4.22706E-004	6	..........a	-327.68
	62	6.3	-2.01006E-001	-2.50912E-001	-2.25959E-001	-3.92525E-009	-6.60655E-008	6.21402E-008	-2.51000E-001	4.22373E-004	6	..........a	-327.68
	64	6.5	-1.96974E-001	-2.46895E-001	-2.21934E-001	-2.22903E-009	-6.33695E-008	6.11404E-008	-2.47000E-001	4.11873E-004	6	..........a	-327.68
	66	6.7	-1.92979E-001	-2.42854E-001	-2.17917E-001	-6.50833E-010	-6.08695E-008	6.02187E-008	-2.43000E-001	4.12706E-004	6	..........a	-327.68
	68	6.9	-1.88985E-001	-2.38892E-001	-2.13939E-001	8.85363E-010	-5.83095E-008	5.91949E-008	-2.39000E-001	4.18373E-004	6	..........a	-327.68
	70	7.1	-1.84992E-001	-2.34868E-001	-2.09930E-001	2.22920E-009	-5.58042E-008	5.80334E-008	-2.35000E-001	4.16373E-004	6	..........a	-327.68
	72	7.3	-1.80989E-001	-2.30888E-001	-2.05938E-001	3.36001E-009	-5.36439E-008	5.70039E-008	-2.31000E-001	4.07373E-004	6	..........a	-327.68
	74	7.5	-1.77009E-001	-2.26914E-001	-2.01961E-001	4.75352E-009	-5.13796E-008	5.61331E-008	-2.27000E-001	4.14873E-004	6	..........a	-327.68
	76	7.7	-1.72999E-001	-2.22923E-001	-1.97961E-001	6.11436E-009	-4.94547E-008	5.55691E-008	-2.23000E-001	3.93873E-004	6	..........a	-327.68
	78	7.9	-1.68985E-001	-2.18934E-001	-1.93960E-001	7.17250E-009	-4.73694E-008	5.45419E-008	-2.19000E-001	3.93206E-004	6	..........a	-327.68
	80	8.1	-1.64844E-001	-2.14906E-001	-1.89875E-001	8.46433E-009	-4.56149E-008	5.40792E-008	-2.15000E-001	3.96873E-004	6	..........a	-327.68
	82	8.3	-1.60975E-001	-2.10894E-001	-1.85935E-001	9.62314E-009	-4.37423E-008	5.33655E-008	-2.11000E-001	3.82039E-004	6	..........a	-327.68
	84	8.5	-1.56952E-001	-2.06920E-001	-1.81936E-001	1.06349E-008	-4.19454E-008	5.25804E-008	-2.07000E-001	3.85039E-004	6	..........a	-327.68
	86	8.7	-1.53041E-001	-2.02892E-001	-1.77966E-001	1.16594E-008	-4.03369E-008	5.19963E-008	-2.03000E-001	3.88706E-004	6	..........a	-327.68
	88	8.9	-1.48992E-001	-1.98959E-001	-1.73976E-001	1.27469E-008	-3.89767E-008	5.17236E-008	-1.99000E-001	3.81873E-004	6	..........a	-327.68
	90	9.1	-1.44984E-001	-1.94921E-001	-1.69952E-001	1.38570E-008	-3.74342E-008	5.12912E-008	-1.95000E-001	3.89539E-004	6	..........a	-327.68
	92	9.3	-1.40977E-001	-1.90957E-001	-1.65967E-001	1.48065E-008	-3.60097E-008	5.08161E-008	-1.91000E-001	3.96873E-004	6	..........a	-327.68
	94	9.5	-1.37039E-001	-1.86876E-001	-1.61957E-001	1.56049E-008	-3.48038E-008	5.04087E-008	-1.87000E-001	3.93706E-004	6	..........a	-327.68
	96	9.7	-1.32936E-001	-1.82935E-001	-1.57935E-001	1.66274E-008	-3.35400E-008	5.01674E-008	-1.83000E-001	3.95206E-004	6	..........a	-327.68
	98	9.9	-1.28973E-001	-1.78888E-001	-1.53930E-001	1.77115E-008	-3.23889E-008	5.01004E-008	-1.79000E-001	3.99706E-004	6	..........a	-327.68
	100	10.1	-1.24975E-001	-1.74952E-001	-1.49964E-001	1.82039E-008	-3.11540E-008	4.93579E-008	-1.75000E-001	3.91706E-004	6	..........a	-327.68