Folder: EchemAnalysis_AMA/C-COM3 (part 4)

File: SWV_10Hz STD3 50  fgml 081020_#3.DTA
EXPLAIN
TAG	SQUARE_WAVE
TITLE	LABEL	Square Wave Voltammetry	Test Identifier
DATE	LABEL	8/10/2020	Date
TIME	LABEL	19:12:30	Time
NOTES	NOTES	1	Notes...
	 STD3 50  fg/mL 08102
PSTAT	PSTAT	REF600-24079	Potentiostat
VINIT	QUANT	-3.50000E-001	Initial E (V)
VFINAL	QUANT	-1.50000E-001	Final E (V)
STEPSIZE	QUANT	2.00000E+000	Step Size (mV)
TIMERRES	QUANT	3.33340E-005	&Timer Resolution
FREQUENCY	QUANT	1.00000E+001	Frequency (Hz)
PULSESIZE	QUANT	2.50000E+001	Pulse Size E (mV)
PULSEON	QUANT	1.00000E-001	Pulse &Time (s)
NOISEREJECT	TOGGLE	F	Noise Rejection
AREA	QUANT	2.00000E-002	Sample Area (cm^2)
IMODE	SELECTOR	1	I/E Range Mode
IRANGE	QUANT	1.00000E-003	Max Current (mA)
EQDELAY	IQUANT	10	Equil. Time (s)
IRCOMP	SELECTOR	0	IRComp
PFCOR	QUANT	5.00000E+001	PF Corr. (ohm)
CYCLES	IQUANT	101	C&ycles (#)
ELECTRODETYPE	SELECTOR	0	Electrode Type
STRIPPING	TOGGLE	F	Used for Stripping
POLARITY	TOGGLE	F	Signal Polarity
LINEFREQ	IQUANT	60	Line Frequency (Hz)
INTPERIOD	QUANT	3.3334E-005	Integration Period (s)
SEQUENCER	TOGGLE	TRUE	Run as Sequence
PSTATMODEL	IQUANT	4	Pstat Model
PSTATSECTION	LABEL	REF600-24079	Pstat Section
PSTATSERIALNO	LABEL	24079	Pstat Serial Number
CTRLMODE	IQUANT	1	Control Mode
ELECTROMETER	IQUANT	0	RE=0 or CS=1
IESTAB	IQUANT	2	I/E Stability
CASPEED	IQUANT	6	Control Amp Speed
CONVENTION	IQUANT	1	Current Convention
ICHRANGE	IQUANT	2	Ich Range
ICHRANGEMODE	TOGGLE	F	Ich Auto Range
ICHOFFSETENABLE	TOGGLE	F	Ich Offset Enable
ICHOFFSET	QUANT	0	Ich Offset (V)
ICHFILTER	IQUANT	2	Ich Filter
VCHRANGE	IQUANT	2	Vch Range
VCHRANGEMODE	TOGGLE	F	Vch Auto Range
VCHOFFSETENABLE	TOGGLE	F	Vch Offset Enable
VCHOFFSET	QUANT	0	Vch Offset (V)
VCHFILTER	IQUANT	2	Vch Filter
ACHRANGE	IQUANT	2	Ach Range
ACHOFFSETENABLE	TOGGLE	F	Ach Offset Enable
ACHOFFSET	QUANT	0	Ach Offset (V)
ACHFILTER	IQUANT	1	Ach Filter
IERANGELOWERLIMIT	IQUANT	1	I/E Range Lower Limit
IERANGEMODE	TOGGLE	F	I/E AutoRange
IERANGE	IQUANT	6	I/E Range
POSFEEDENABLE	TOGGLE	F	Positive Feedback IR Comp
POSFEEDRESISTANCE	QUANT	0	Positive Feedback Resistance (ohm)
ACHSELECT	IQUANT	0	Ach Select
SENSECABLEID	IQUANT	13	Sense Cable ID
PWRCABLEID	IQUANT	13	Power Cable ID
DCCALDATE	LABEL	6/30/2020	DC Calibration Date
ACCALDATE	LABEL	6/30/2020	AC Calibration Date
THERMOSELECT	IQUANT	1	Thermo Select
FRAMEWORKVERSION	LABEL	7.8.2	Framework Version
INSTRUMENTVERSION	LABEL	4.40	Instrument Version
CURVE	TABLE	101
	Pt	T	Vfwd	Vrev	Vstep	Ifwd	Irev	Idif	Sig	Ach	IERange	Over	Temp
	#	s	V	V	V	A	A	A	V	V	#	bits	deg C
	0	0.1	-3.24925E-001	-3.74911E-001	-3.49918E-001	-1.04985E-007	-2.07247E-007	1.02262E-007	-3.75000E-001	3.93039E-004	6	..........a	-327.68
	2	0.3	-3.20921E-001	-3.70772E-001	-3.45847E-001	-8.63524E-008	-1.94573E-007	1.08220E-007	-3.71000E-001	3.64539E-004	6	..........a	-327.68
	4	0.5	-3.16874E-001	-3.66951E-001	-3.41912E-001	-8.07104E-008	-1.85839E-007	1.05128E-007	-3.67000E-001	3.68706E-004	6	..........a	-327.68
	6	0.7	-3.12927E-001	-3.62817E-001	-3.37872E-001	-7.56417E-008	-1.78277E-007	1.02635E-007	-3.63000E-001	3.82039E-004	6	..........a	-327.68
	8	0.9	-3.08909E-001	-3.58889E-001	-3.33899E-001	-7.10728E-008	-1.70766E-007	9.96934E-008	-3.59000E-001	3.91539E-004	6	..........a	-327.68
	10	1.1	-3.04945E-001	-3.54853E-001	-3.29899E-001	-6.69753E-008	-1.63764E-007	9.67883E-008	-3.55000E-001	3.73539E-004	6	..........a	-327.68
	12	1.3	-3.00916E-001	-3.50908E-001	-3.25912E-001	-6.27827E-008	-1.56984E-007	9.42013E-008	-3.51000E-001	3.82373E-004	6	..........a	-327.68
	14	1.5	-2.96919E-001	-3.46899E-001	-3.21909E-001	-5.88559E-008	-1.50851E-007	9.19954E-008	-3.47000E-001	3.84039E-004	6	..........a	-327.68
	16	1.7	-2.92848E-001	-3.42913E-001	-3.17881E-001	-5.48901E-008	-1.44661E-007	8.97714E-008	-3.43000E-001	3.80373E-004	6	..........a	-327.68
	18	1.9	-2.88951E-001	-3.38847E-001	-3.13899E-001	-5.09026E-008	-1.38525E-007	8.76228E-008	-3.39000E-001	3.71539E-004	6	..........a	-327.68
	20	2.1	-2.84903E-001	-3.34900E-001	-3.09902E-001	-4.73954E-008	-1.32989E-007	8.55936E-008	-3.35000E-001	3.74039E-004	6	..........a	-327.68
	22	2.3	-2.80959E-001	-3.30825E-001	-3.05892E-001	-4.38433E-008	-1.27481E-007	8.36373E-008	-3.31000E-001	3.71873E-004	6	..........a	-327.68
	24	2.5	-2.76924E-001	-3.26912E-001	-3.01918E-001	-4.03465E-008	-1.22542E-007	8.21951E-008	-3.27000E-001	3.77873E-004	6	..........a	-327.68
	26	2.7	-2.72913E-001	-3.22872E-001	-2.97893E-001	-3.68574E-008	-1.17298E-007	8.04409E-008	-3.23000E-001	3.72706E-004	6	..........a	-327.68
	28	2.9	-2.68918E-001	-3.18914E-001	-2.93916E-001	-3.39097E-008	-1.12563E-007	7.86533E-008	-3.19000E-001	3.75539E-004	6	..........a	-327.68
	30	3.1	-2.64937E-001	-3.14878E-001	-2.89908E-001	-3.07077E-008	-1.07911E-007	7.72035E-008	-3.15000E-001	3.85373E-004	6	..........a	-327.68
	32	3.3	-2.60867E-001	-3.10904E-001	-2.85885E-001	-2.78236E-008	-1.03663E-007	7.58390E-008	-3.11000E-001	3.79706E-004	6	..........a	-327.68
	34	3.5	-2.56910E-001	-3.06837E-001	-2.81874E-001	-2.49726E-008	-9.96901E-008	7.47175E-008	-3.07000E-001	3.83706E-004	6	..........a	-327.68
	36	3.7	-2.52917E-001	-3.02930E-001	-2.77924E-001	-2.21939E-008	-9.57599E-008	7.35660E-008	-3.03000E-001	3.93706E-004	6	..........a	-327.68
	38	3.9	-2.48934E-001	-2.98883E-001	-2.73909E-001	-1.98269E-008	-9.21808E-008	7.23539E-008	-2.99000E-001	3.79539E-004	6	..........a	-327.68
	40	4.1	-2.44909E-001	-2.94925E-001	-2.69917E-001	-1.72013E-008	-8.86394E-008	7.14381E-008	-2.95000E-001	3.58873E-004	6	..........a	-327.68
	42	4.3	-2.40974E-001	-2.90830E-001	-2.65902E-001	-1.51597E-008	-8.50306E-008	6.98709E-008	-2.91000E-001	3.79206E-004	6	..........a	-327.68
	44	4.5	-2.36911E-001	-2.86913E-001	-2.61912E-001	-1.29701E-008	-8.17168E-008	6.87468E-008	-2.87000E-001	3.66873E-004	6	..........a	-327.68
	46	4.7	-2.32898E-001	-2.82828E-001	-2.57863E-001	-1.10135E-008	-7.83704E-008	6.73569E-008	-2.83000E-001	3.81206E-004	6	..........a	-327.68
	48	4.9	-2.28871E-001	-2.78896E-001	-2.53883E-001	-9.16692E-009	-7.53903E-008	6.62234E-008	-2.79000E-001	3.88706E-004	6	..........a	-327.68
	50	5.1	-2.24909E-001	-2.74873E-001	-2.49891E-001	-7.47370E-009	-7.25586E-008	6.50849E-008	-2.75000E-001	3.83873E-004	6	..........a	-327.68
	52	5.3	-2.20905E-001	-2.70888E-001	-2.45897E-001	-5.55912E-009	-6.96469E-008	6.40878E-008	-2.71000E-001	4.04706E-004	6	..........a	-327.68
	54	5.5	-2.16966E-001	-2.66788E-001	-2.41877E-001	-4.09527E-009	-6.69443E-008	6.28490E-008	-2.67000E-001	3.83873E-004	6	..........a	-327.68
	56	5.7	-2.12918E-001	-2.62903E-001	-2.37911E-001	-2.74543E-009	-6.42329E-008	6.14875E-008	-2.63000E-001	3.79206E-004	6	..........a	-327.68
	58	5.9	-2.08900E-001	-2.58822E-001	-2.33861E-001	-1.28625E-009	-6.15763E-008	6.02900E-008	-2.59000E-001	3.88373E-004	6	..........a	-327.68
	60	6.1	-2.04874E-001	-2.54905E-001	-2.29890E-001	2.57949E-010	-5.91166E-008	5.93746E-008	-2.55000E-001	3.82039E-004	6	..........a	-327.68
	62	6.3	-2.00937E-001	-2.50867E-001	-2.25902E-001	1.51411E-009	-5.67866E-008	5.83008E-008	-2.51000E-001	3.65706E-004	6	..........a	-327.68
	64	6.5	-1.96911E-001	-2.46878E-001	-2.21895E-001	2.77327E-009	-5.44620E-008	5.72353E-008	-2.47000E-001	3.73539E-004	6	..........a	-327.68
	66	6.7	-1.92927E-001	-2.42798E-001	-2.17862E-001	3.82807E-009	-5.22034E-008	5.60315E-008	-2.43000E-001	3.76539E-004	6	..........a	-327.68
	68	6.9	-1.88865E-001	-2.38878E-001	-2.13872E-001	4.85720E-009	-5.03982E-008	5.52554E-008	-2.39000E-001	3.61539E-004	6	..........a	-327.68
	70	7.1	-1.84934E-001	-2.34822E-001	-2.09878E-001	5.74131E-009	-4.83766E-008	5.41179E-008	-2.35000E-001	3.56373E-004	6	..........a	-327.68
	72	7.3	-1.80842E-001	-2.30889E-001	-2.05865E-001	6.71644E-009	-4.67394E-008	5.34558E-008	-2.31000E-001	3.61873E-004	6	..........a	-327.68
	74	7.5	-1.76914E-001	-2.26838E-001	-2.01876E-001	7.46353E-009	-4.47388E-008	5.22023E-008	-2.27000E-001	3.73706E-004	6	..........a	-327.68
	76	7.7	-1.72914E-001	-2.22897E-001	-1.97905E-001	8.38165E-009	-4.33529E-008	5.17346E-008	-2.23000E-001	3.61706E-004	6	..........a	-327.68
	78	7.9	-1.68915E-001	-2.18887E-001	-1.93901E-001	9.48712E-009	-4.15970E-008	5.10842E-008	-2.19000E-001	3.70539E-004	6	..........a	-327.68
	80	8.1	-1.64759E-001	-2.14877E-001	-1.89818E-001	1.03189E-008	-4.04086E-008	5.07275E-008	-2.15000E-001	3.53873E-004	6	..........a	-327.68
	82	8.3	-1.60939E-001	-2.10853E-001	-1.85896E-001	1.10737E-008	-3.89224E-008	4.99960E-008	-2.11000E-001	3.61873E-004	6	..........a	-327.68
	84	8.5	-1.56853E-001	-2.06916E-001	-1.81885E-001	1.19024E-008	-3.75335E-008	4.94360E-008	-2.07000E-001	3.58539E-004	6	..........a	-327.68
	86	8.7	-1.52937E-001	-2.02848E-001	-1.77892E-001	1.27285E-008	-3.63110E-008	4.90396E-008	-2.03000E-001	3.45539E-004	6	..........a	-327.68
	88	8.9	-1.48884E-001	-1.98925E-001	-1.73904E-001	1.33273E-008	-3.50972E-008	4.84245E-008	-1.99000E-001	3.49706E-004	6	..........a	-327.68
	90	9.1	-1.44910E-001	-1.94881E-001	-1.69895E-001	1.41040E-008	-3.41834E-008	4.82875E-008	-1.95000E-001	3.39373E-004	6	..........a	-327.68
	92	9.3	-1.40917E-001	-1.90916E-001	-1.65917E-001	1.48208E-008	-3.30730E-008	4.78938E-008	-1.91000E-001	3.58706E-004	6	..........a	-327.68
	94	9.5	-1.36929E-001	-1.86832E-001	-1.61880E-001	1.55482E-008	-3.19485E-008	4.74967E-008	-1.87000E-001	3.65206E-004	6	..........a	-327.68
	96	9.7	-1.32823E-001	-1.82891E-001	-1.57857E-001	1.62443E-008	-3.10407E-008	4.72850E-008	-1.83000E-001	3.47373E-004	6	..........a	-327.68
	98	9.9	-1.28873E-001	-1.78830E-001	-1.53851E-001	1.68677E-008	-3.05103E-008	4.73780E-008	-1.79000E-001	3.50039E-004	6	..........a	-327.68
	100	10.1	-1.24895E-001	-1.74916E-001	-1.49905E-001	1.72091E-008	-2.93712E-008	4.65803E-008	-1.75000E-001	3.49873E-004	6	..........a	-327.68

File: SWV_10Hz STD3 50  fgml 081020_#5.DTA
EXPLAIN
TAG	SQUARE_WAVE
TITLE	LABEL	Square Wave Voltammetry	Test Identifier
DATE	LABEL	8/10/2020	Date
TIME	LABEL	19:13:11	Time
NOTES	NOTES	1	Notes...
	 STD3 50  fg/mL 08102
PSTAT	PSTAT	REF600-24079	Potentiostat
VINIT	QUANT	-3.50000E-001	Initial E (V)
VFINAL	QUANT	-1.50000E-001	Final E (V)
STEPSIZE	QUANT	2.00000E+000	Step Size (mV)
TIMERRES	QUANT	3.33340E-005	&Timer Resolution
FREQUENCY	QUANT	1.00000E+001	Frequency (Hz)
PULSESIZE	QUANT	2.50000E+001	Pulse Size E (mV)
PULSEON	QUANT	1.00000E-001	Pulse &Time (s)
NOISEREJECT	TOGGLE	F	Noise Rejection
AREA	QUANT	2.00000E-002	Sample Area (cm^2)
IMODE	SELECTOR	1	I/E Range Mode
IRANGE	QUANT	1.00000E-003	Max Current (mA)
EQDELAY	IQUANT	10	Equil. Time (s)
IRCOMP	SELECTOR	0	IRComp
PFCOR	QUANT	5.00000E+001	PF Corr. (ohm)
CYCLES	IQUANT	101	C&ycles (#)
ELECTRODETYPE	SELECTOR	0	Electrode Type
STRIPPING	TOGGLE	F	Used for Stripping
POLARITY	TOGGLE	F	Signal Polarity
LINEFREQ	IQUANT	60	Line Frequency (Hz)
INTPERIOD	QUANT	3.3334E-005	Integration Period (s)
SEQUENCER	TOGGLE	TRUE	Run as Sequence
PSTATMODEL	IQUANT	4	Pstat Model
PSTATSECTION	LABEL	REF600-24079	Pstat Section
PSTATSERIALNO	LABEL	24079	Pstat Serial Number
CTRLMODE	IQUANT	1	Control Mode
ELECTROMETER	IQUANT	0	RE=0 or CS=1
IESTAB	IQUANT	2	I/E Stability
CASPEED	IQUANT	6	Control Amp Speed
CONVENTION	IQUANT	1	Current Convention
ICHRANGE	IQUANT	2	Ich Range
ICHRANGEMODE	TOGGLE	F	Ich Auto Range
ICHOFFSETENABLE	TOGGLE	F	Ich Offset Enable
ICHOFFSET	QUANT	0	Ich Offset (V)
ICHFILTER	IQUANT	2	Ich Filter
VCHRANGE	IQUANT	2	Vch Range
VCHRANGEMODE	TOGGLE	F	Vch Auto Range
VCHOFFSETENABLE	TOGGLE	F	Vch Offset Enable
VCHOFFSET	QUANT	0	Vch Offset (V)
VCHFILTER	IQUANT	2	Vch Filter
ACHRANGE	IQUANT	2	Ach Range
ACHOFFSETENABLE	TOGGLE	F	Ach Offset Enable
ACHOFFSET	QUANT	0	Ach Offset (V)
ACHFILTER	IQUANT	1	Ach Filter
IERANGELOWERLIMIT	IQUANT	1	I/E Range Lower Limit
IERANGEMODE	TOGGLE	F	I/E AutoRange
IERANGE	IQUANT	6	I/E Range
POSFEEDENABLE	TOGGLE	F	Positive Feedback IR Comp
POSFEEDRESISTANCE	QUANT	0	Positive Feedback Resistance (ohm)
ACHSELECT	IQUANT	0	Ach Select
SENSECABLEID	IQUANT	13	Sense Cable ID
PWRCABLEID	IQUANT	13	Power Cable ID
DCCALDATE	LABEL	6/30/2020	DC Calibration Date
ACCALDATE	LABEL	6/30/2020	AC Calibration Date
THERMOSELECT	IQUANT	1	Thermo Select
FRAMEWORKVERSION	LABEL	7.8.2	Framework Version
INSTRUMENTVERSION	LABEL	4.40	Instrument Version
CURVE	TABLE	101
	Pt	T	Vfwd	Vrev	Vstep	Ifwd	Irev	Idif	Sig	Ach	IERange	Over	Temp
	#	s	V	V	V	A	A	A	V	V	#	bits	deg C
	0	0.1	-3.24910E-001	-3.74926E-001	-3.49918E-001	-1.01395E-007	-1.99481E-007	9.80861E-008	-3.75000E-001	3.58373E-004	6	..........a	-327.68
	2	0.3	-3.20917E-001	-3.70803E-001	-3.45860E-001	-8.26403E-008	-1.86992E-007	1.04352E-007	-3.71000E-001	3.45039E-004	6	..........a	-327.68
	4	0.5	-3.16853E-001	-3.66934E-001	-3.41893E-001	-7.71989E-008	-1.79200E-007	1.02001E-007	-3.67000E-001	3.63539E-004	6	..........a	-327.68
	6	0.7	-3.12937E-001	-3.62839E-001	-3.37888E-001	-7.28257E-008	-1.71750E-007	9.89246E-008	-3.63000E-001	3.79706E-004	6	..........a	-327.68
	8	0.9	-3.08899E-001	-3.58912E-001	-3.33906E-001	-6.83324E-008	-1.65079E-007	9.67463E-008	-3.59000E-001	3.86373E-004	6	..........a	-327.68
	10	1.1	-3.04943E-001	-3.54859E-001	-3.29901E-001	-6.42639E-008	-1.58376E-007	9.41120E-008	-3.55000E-001	3.69873E-004	6	..........a	-327.68
	12	1.3	-3.00914E-001	-3.50917E-001	-3.25915E-001	-6.02758E-008	-1.52047E-007	9.17717E-008	-3.51000E-001	3.67373E-004	6	..........a	-327.68
	14	1.5	-2.96912E-001	-3.46904E-001	-3.21908E-001	-5.63276E-008	-1.46146E-007	8.98184E-008	-3.47000E-001	3.64706E-004	6	..........a	-327.68
	16	1.7	-2.92835E-001	-3.42938E-001	-3.17887E-001	-5.26754E-008	-1.40122E-007	8.74468E-008	-3.43000E-001	3.71373E-004	6	..........a	-327.68
	18	1.9	-2.88959E-001	-3.38859E-001	-3.13909E-001	-4.88846E-008	-1.34682E-007	8.57969E-008	-3.39000E-001	3.76206E-004	6	..........a	-327.68
	20	2.1	-2.84909E-001	-3.34924E-001	-3.09917E-001	-4.56035E-008	-1.29095E-007	8.34913E-008	-3.35000E-001	3.67206E-004	6	..........a	-327.68
	22	2.3	-2.80973E-001	-3.30842E-001	-3.05907E-001	-4.22055E-008	-1.24173E-007	8.19671E-008	-3.31000E-001	3.70706E-004	6	..........a	-327.68
	24	2.5	-2.76915E-001	-3.26924E-001	-3.01920E-001	-3.87690E-008	-1.18919E-007	8.01502E-008	-3.27000E-001	3.55873E-004	6	..........a	-327.68
	26	2.7	-2.72925E-001	-3.22888E-001	-2.97906E-001	-3.56279E-008	-1.14411E-007	7.87834E-008	-3.23000E-001	3.62373E-004	6	..........a	-327.68
	28	2.9	-2.68921E-001	-3.18937E-001	-2.93929E-001	-3.25352E-008	-1.09721E-007	7.71855E-008	-3.19000E-001	3.76873E-004	6	..........a	-327.68
	30	3.1	-2.64950E-001	-3.14902E-001	-2.89926E-001	-2.94858E-008	-1.05271E-007	7.57856E-008	-3.15000E-001	3.64873E-004	6	..........a	-327.68
	32	3.3	-2.60886E-001	-3.10914E-001	-2.85900E-001	-2.65511E-008	-1.01182E-007	7.46312E-008	-3.11000E-001	3.56039E-004	6	..........a	-327.68
	34	3.5	-2.56913E-001	-3.06863E-001	-2.81888E-001	-2.38705E-008	-9.73518E-008	7.34813E-008	-3.07000E-001	3.66873E-004	6	..........a	-327.68
	36	3.7	-2.52923E-001	-3.02944E-001	-2.77934E-001	-2.13828E-008	-9.34890E-008	7.21062E-008	-3.03000E-001	3.66539E-004	6	..........a	-327.68
	38	3.9	-2.48924E-001	-2.98891E-001	-2.73907E-001	-1.86828E-008	-8.99132E-008	7.12304E-008	-2.99000E-001	3.55706E-004	6	..........a	-327.68
	40	4.1	-2.44921E-001	-2.94928E-001	-2.69925E-001	-1.65682E-008	-8.64047E-008	6.98365E-008	-2.95000E-001	3.60873E-004	6	..........a	-327.68
	42	4.3	-2.40980E-001	-2.90833E-001	-2.65906E-001	-1.43752E-008	-8.30650E-008	6.86897E-008	-2.91000E-001	3.65206E-004	6	..........a	-327.68
	44	4.5	-2.36904E-001	-2.86926E-001	-2.61915E-001	-1.20786E-008	-7.98156E-008	6.77369E-008	-2.87000E-001	3.55539E-004	6	..........a	-327.68
	46	4.7	-2.32909E-001	-2.82847E-001	-2.57878E-001	-1.01160E-008	-7.67129E-008	6.65968E-008	-2.83000E-001	3.73706E-004	6	..........a	-327.68
	48	4.9	-2.28857E-001	-2.78919E-001	-2.53888E-001	-8.19879E-009	-7.38908E-008	6.56920E-008	-2.79000E-001	3.66873E-004	6	..........a	-327.68
	50	5.1	-2.24917E-001	-2.74888E-001	-2.49903E-001	-6.72727E-009	-7.09641E-008	6.42368E-008	-2.75000E-001	3.63039E-004	6	..........a	-327.68
	52	5.3	-2.20913E-001	-2.70892E-001	-2.45903E-001	-5.09740E-009	-6.80321E-008	6.29347E-008	-2.71000E-001	3.67873E-004	6	..........a	-327.68
	54	5.5	-2.16965E-001	-2.66808E-001	-2.41886E-001	-3.47252E-009	-6.54898E-008	6.20172E-008	-2.67000E-001	3.75373E-004	6	..........a	-327.68
	56	5.7	-2.12924E-001	-2.62901E-001	-2.37913E-001	-2.14502E-009	-6.26757E-008	6.05307E-008	-2.63000E-001	3.57039E-004	6	..........a	-327.68
	58	5.9	-2.08914E-001	-2.58844E-001	-2.33879E-001	-5.66822E-010	-6.02571E-008	5.96903E-008	-2.59000E-001	3.64039E-004	6	..........a	-327.68
	60	6.1	-2.04888E-001	-2.54915E-001	-2.29902E-001	9.35369E-010	-5.79011E-008	5.88365E-008	-2.55000E-001	3.55206E-004	6	..........a	-327.68
	62	6.3	-2.00931E-001	-2.50870E-001	-2.25900E-001	2.12685E-009	-5.54515E-008	5.75783E-008	-2.51000E-001	3.66373E-004	6	..........a	-327.68
	64	6.5	-1.96916E-001	-2.46888E-001	-2.21902E-001	3.19132E-009	-5.33979E-008	5.65892E-008	-2.47000E-001	3.63039E-004	6	..........a	-327.68
	66	6.7	-1.92933E-001	-2.42816E-001	-2.17874E-001	4.07343E-009	-5.13076E-008	5.53811E-008	-2.43000E-001	3.48206E-004	6	..........a	-327.68
	68	6.9	-1.88832E-001	-2.38930E-001	-2.13881E-001	5.34760E-009	-4.94960E-008	5.48436E-008	-2.39000E-001	3.54706E-004	6	..........a	-327.68
	70	7.1	-1.84940E-001	-2.34828E-001	-2.09884E-001	6.21537E-009	-4.73978E-008	5.36132E-008	-2.35000E-001	3.52039E-004	6	..........a	-327.68
	72	7.3	-1.80863E-001	-2.30904E-001	-2.05883E-001	7.20883E-009	-4.57439E-008	5.29527E-008	-2.31000E-001	3.37706E-004	6	..........a	-327.68
	74	7.5	-1.76916E-001	-2.26851E-001	-2.01884E-001	8.17929E-009	-4.40597E-008	5.22390E-008	-2.27000E-001	3.49873E-004	6	..........a	-327.68
	76	7.7	-1.72902E-001	-2.22917E-001	-1.97910E-001	9.21809E-009	-4.22291E-008	5.14472E-008	-2.23000E-001	3.48206E-004	6	..........a	-327.68
	78	7.9	-1.68913E-001	-2.18897E-001	-1.93905E-001	9.92818E-009	-4.09060E-008	5.08341E-008	-2.19000E-001	3.40039E-004	6	..........a	-327.68
	80	8.1	-1.64762E-001	-2.14942E-001	-1.89852E-001	1.08320E-008	-3.92031E-008	5.00350E-008	-2.15000E-001	3.47873E-004	6	..........a	-327.68
	82	8.3	-1.60939E-001	-2.10872E-001	-1.85906E-001	1.16921E-008	-3.79486E-008	4.96406E-008	-2.11000E-001	3.51373E-004	6	..........a	-327.68
	84	8.5	-1.56862E-001	-2.06934E-001	-1.81898E-001	1.26409E-008	-3.67448E-008	4.93856E-008	-2.07000E-001	3.32373E-004	6	..........a	-327.68
	86	8.7	-1.52957E-001	-2.02855E-001	-1.77906E-001	1.34333E-008	-3.54296E-008	4.88629E-008	-2.03000E-001	3.25039E-004	6	..........a	-327.68
	88	8.9	-1.48899E-001	-1.98932E-001	-1.73915E-001	1.41124E-008	-3.42908E-008	4.84032E-008	-1.99000E-001	3.39373E-004	6	..........a	-327.68
	90	9.1	-1.44917E-001	-1.94895E-001	-1.69906E-001	1.50805E-008	-3.30590E-008	4.81395E-008	-1.95000E-001	3.39706E-004	6	..........a	-327.68
	92	9.3	-1.40916E-001	-1.90964E-001	-1.65940E-001	1.55459E-008	-3.20858E-008	4.76317E-008	-1.91000E-001	3.42706E-004	6	..........a	-327.68
	94	9.5	-1.36944E-001	-1.86855E-001	-1.61900E-001	1.61660E-008	-3.10854E-008	4.72513E-008	-1.87000E-001	3.24873E-004	6	..........a	-327.68
	96	9.7	-1.32845E-001	-1.82919E-001	-1.57882E-001	1.69387E-008	-3.04483E-008	4.73870E-008	-1.83000E-001	3.26039E-004	6	..........a	-327.68
	98	9.9	-1.28906E-001	-1.78842E-001	-1.53874E-001	1.74455E-008	-2.94502E-008	4.68956E-008	-1.79000E-001	3.33206E-004	6	..........a	-327.68
	100	10.1	-1.24895E-001	-1.74928E-001	-1.49911E-001	1.80869E-008	-2.85601E-008	4.66469E-008	-1.75000E-001	3.34539E-004	6	..........a	-327.68