Folder: EchemAnalysis_AMA/Sample Data/Concentration Curve Data/C-COM3 (part 5)

File: SWV_10Hz STD3 50  fgml 081020_#9.DTA
EXPLAIN
TAG	SQUARE_WAVE
TITLE	LABEL	Square Wave Voltammetry	Test Identifier
DATE	LABEL	8/10/2020	Date
TIME	LABEL	19:14:31	Time
NOTES	NOTES	1	Notes...
	 STD3 50  fg/mL 08102
PSTAT	PSTAT	REF600-24079	Potentiostat
VINIT	QUANT	-3.50000E-001	Initial E (V)
VFINAL	QUANT	-1.50000E-001	Final E (V)
STEPSIZE	QUANT	2.00000E+000	Step Size (mV)
TIMERRES	QUANT	3.33340E-005	&Timer Resolution
FREQUENCY	QUANT	1.00000E+001	Frequency (Hz)
PULSESIZE	QUANT	2.50000E+001	Pulse Size E (mV)
PULSEON	QUANT	1.00000E-001	Pulse &Time (s)
NOISEREJECT	TOGGLE	F	Noise Rejection
AREA	QUANT	2.00000E-002	Sample Area (cm^2)
IMODE	SELECTOR	1	I/E Range Mode
IRANGE	QUANT	1.00000E-003	Max Current (mA)
EQDELAY	IQUANT	10	Equil. Time (s)
IRCOMP	SELECTOR	0	IRComp
PFCOR	QUANT	5.00000E+001	PF Corr. (ohm)
CYCLES	IQUANT	101	C&ycles (#)
ELECTRODETYPE	SELECTOR	0	Electrode Type
STRIPPING	TOGGLE	F	Used for Stripping
POLARITY	TOGGLE	F	Signal Polarity
LINEFREQ	IQUANT	60	Line Frequency (Hz)
INTPERIOD	QUANT	3.3334E-005	Integration Period (s)
SEQUENCER	TOGGLE	TRUE	Run as Sequence
PSTATMODEL	IQUANT	4	Pstat Model
PSTATSECTION	LABEL	REF600-24079	Pstat Section
PSTATSERIALNO	LABEL	24079	Pstat Serial Number
CTRLMODE	IQUANT	1	Control Mode
ELECTROMETER	IQUANT	0	RE=0 or CS=1
IESTAB	IQUANT	2	I/E Stability
CASPEED	IQUANT	6	Control Amp Speed
CONVENTION	IQUANT	1	Current Convention
ICHRANGE	IQUANT	2	Ich Range
ICHRANGEMODE	TOGGLE	F	Ich Auto Range
ICHOFFSETENABLE	TOGGLE	F	Ich Offset Enable
ICHOFFSET	QUANT	0	Ich Offset (V)
ICHFILTER	IQUANT	2	Ich Filter
VCHRANGE	IQUANT	2	Vch Range
VCHRANGEMODE	TOGGLE	F	Vch Auto Range
VCHOFFSETENABLE	TOGGLE	F	Vch Offset Enable
VCHOFFSET	QUANT	0	Vch Offset (V)
VCHFILTER	IQUANT	2	Vch Filter
ACHRANGE	IQUANT	2	Ach Range
ACHOFFSETENABLE	TOGGLE	F	Ach Offset Enable
ACHOFFSET	QUANT	0	Ach Offset (V)
ACHFILTER	IQUANT	1	Ach Filter
IERANGELOWERLIMIT	IQUANT	1	I/E Range Lower Limit
IERANGEMODE	TOGGLE	F	I/E AutoRange
IERANGE	IQUANT	6	I/E Range
POSFEEDENABLE	TOGGLE	F	Positive Feedback IR Comp
POSFEEDRESISTANCE	QUANT	0	Positive Feedback Resistance (ohm)
ACHSELECT	IQUANT	0	Ach Select
SENSECABLEID	IQUANT	13	Sense Cable ID
PWRCABLEID	IQUANT	13	Power Cable ID
DCCALDATE	LABEL	6/30/2020	DC Calibration Date
ACCALDATE	LABEL	6/30/2020	AC Calibration Date
THERMOSELECT	IQUANT	1	Thermo Select
FRAMEWORKVERSION	LABEL	7.8.2	Framework Version
INSTRUMENTVERSION	LABEL	4.40	Instrument Version
CURVE	TABLE	101
	Pt	T	Vfwd	Vrev	Vstep	Ifwd	Irev	Idif	Sig	Ach	IERange	Over	Temp
	#	s	V	V	V	A	A	A	V	V	#	bits	deg C
	0	0.1	-3.24899E-001	-3.74920E-001	-3.49909E-001	-1.02385E-007	-2.00009E-007	9.76234E-008	-3.75000E-001	3.85539E-004	6	..........a	-327.68
	2	0.3	-3.20895E-001	-3.70800E-001	-3.45848E-001	-8.37907E-008	-1.87437E-007	1.03646E-007	-3.71000E-001	3.67373E-004	6	..........a	-327.68
	4	0.5	-3.16826E-001	-3.66949E-001	-3.41888E-001	-7.81877E-008	-1.79522E-007	1.01335E-007	-3.67000E-001	3.63539E-004	6	..........a	-327.68
	6	0.7	-3.12920E-001	-3.62843E-001	-3.37882E-001	-7.35911E-008	-1.72576E-007	9.89849E-008	-3.63000E-001	3.85706E-004	6	..........a	-327.68
	8	0.9	-3.08868E-001	-3.58906E-001	-3.33887E-001	-6.92669E-008	-1.65787E-007	9.65203E-008	-3.59000E-001	3.87539E-004	6	..........a	-327.68
	10	1.1	-3.04924E-001	-3.54855E-001	-3.29890E-001	-6.55164E-008	-1.59415E-007	9.38989E-008	-3.55000E-001	3.97206E-004	6	..........a	-327.68
	12	1.3	-3.00909E-001	-3.50903E-001	-3.25906E-001	-6.13292E-008	-1.53075E-007	9.17457E-008	-3.51000E-001	3.75373E-004	6	..........a	-327.68
	14	1.5	-2.96895E-001	-3.46902E-001	-3.21898E-001	-5.76138E-008	-1.47199E-007	8.95851E-008	-3.47000E-001	3.79706E-004	6	..........a	-327.68
	16	1.7	-2.92807E-001	-3.42936E-001	-3.17872E-001	-5.37643E-008	-1.41253E-007	8.74885E-008	-3.43000E-001	3.78873E-004	6	..........a	-327.68
	18	1.9	-2.88927E-001	-3.38876E-001	-3.13901E-001	-5.00808E-008	-1.35758E-007	8.56772E-008	-3.39000E-001	3.72873E-004	6	..........a	-327.68
	20	2.1	-2.84884E-001	-3.34908E-001	-3.09896E-001	-4.67150E-008	-1.30458E-007	8.37426E-008	-3.35000E-001	3.73373E-004	6	..........a	-327.68
	22	2.3	-2.80945E-001	-3.30850E-001	-3.05898E-001	-4.33943E-008	-1.25180E-007	8.17861E-008	-3.31000E-001	3.88206E-004	6	..........a	-327.68
	24	2.5	-2.76905E-001	-3.26909E-001	-3.01907E-001	-4.00455E-008	-1.20320E-007	8.02749E-008	-3.27000E-001	3.61039E-004	6	..........a	-327.68
	26	2.7	-2.72906E-001	-3.22881E-001	-2.97893E-001	-3.67658E-008	-1.15676E-007	7.89100E-008	-3.23000E-001	3.63373E-004	6	..........a	-327.68
	28	2.9	-2.68905E-001	-3.18930E-001	-2.93918E-001	-3.34897E-008	-1.11037E-007	7.75469E-008	-3.19000E-001	3.76039E-004	6	..........a	-327.68
	30	3.1	-2.64936E-001	-3.14908E-001	-2.89922E-001	-3.07507E-008	-1.06602E-007	7.58510E-008	-3.15000E-001	3.81873E-004	6	..........a	-327.68
	32	3.3	-2.60850E-001	-3.10912E-001	-2.85881E-001	-2.76913E-008	-1.02334E-007	7.46432E-008	-3.11000E-001	3.93039E-004	6	..........a	-327.68
	34	3.5	-2.56900E-001	-3.06868E-001	-2.81884E-001	-2.50056E-008	-9.85243E-008	7.35187E-008	-3.07000E-001	3.51373E-004	6	..........a	-327.68
	36	3.7	-2.52904E-001	-3.02938E-001	-2.77921E-001	-2.25646E-008	-9.49628E-008	7.23982E-008	-3.03000E-001	3.66706E-004	6	..........a	-327.68
	38	3.9	-2.48921E-001	-2.98882E-001	-2.73901E-001	-2.00290E-008	-9.12697E-008	7.12407E-008	-2.99000E-001	3.71373E-004	6	..........a	-327.68
	40	4.1	-2.44905E-001	-2.94919E-001	-2.69912E-001	-1.77997E-008	-8.75549E-008	6.97552E-008	-2.95000E-001	3.59373E-004	6	..........a	-327.68
	42	4.3	-2.40928E-001	-2.90851E-001	-2.65889E-001	-1.53444E-008	-8.43355E-008	6.89911E-008	-2.91000E-001	3.81873E-004	6	..........a	-327.68
	44	4.5	-2.36893E-001	-2.86916E-001	-2.61905E-001	-1.32018E-008	-8.12414E-008	6.80397E-008	-2.87000E-001	3.75039E-004	6	..........a	-327.68
	46	4.7	-2.32893E-001	-2.82846E-001	-2.57869E-001	-1.13349E-008	-7.80627E-008	6.67278E-008	-2.83000E-001	3.73706E-004	6	..........a	-327.68
	48	4.9	-2.28815E-001	-2.78913E-001	-2.53864E-001	-9.51396E-009	-7.51326E-008	6.56187E-008	-2.79000E-001	3.77539E-004	6	..........a	-327.68
	50	5.1	-2.24911E-001	-2.74887E-001	-2.49899E-001	-7.80308E-009	-7.23586E-008	6.45556E-008	-2.75000E-001	3.82706E-004	6	..........a	-327.68
	52	5.3	-2.20895E-001	-2.70883E-001	-2.45889E-001	-5.93984E-009	-6.95629E-008	6.36231E-008	-2.71000E-001	3.83706E-004	6	..........a	-327.68
	54	5.5	-2.16923E-001	-2.66805E-001	-2.41864E-001	-4.44265E-009	-6.66839E-008	6.22413E-008	-2.67000E-001	3.65539E-004	6	..........a	-327.68
	56	5.7	-2.12901E-001	-2.62889E-001	-2.37895E-001	-2.96679E-009	-6.40022E-008	6.10354E-008	-2.63000E-001	3.86206E-004	6	..........a	-327.68
	58	5.9	-2.08893E-001	-2.58844E-001	-2.33869E-001	-1.46827E-009	-6.17663E-008	6.02980E-008	-2.59000E-001	3.67373E-004	6	..........a	-327.68
	60	6.1	-2.04870E-001	-2.54905E-001	-2.29887E-001	-2.57449E-010	-5.92790E-008	5.90215E-008	-2.55000E-001	3.80873E-004	6	..........a	-327.68
	62	6.3	-2.00912E-001	-2.50871E-001	-2.25892E-001	1.05572E-009	-5.68303E-008	5.78860E-008	-2.51000E-001	3.50873E-004	6	..........a	-327.68
	64	6.5	-1.96904E-001	-2.46869E-001	-2.21886E-001	2.40256E-009	-5.44717E-008	5.68742E-008	-2.47000E-001	3.79706E-004	6	..........a	-327.68
	66	6.7	-1.92907E-001	-2.42806E-001	-2.17857E-001	3.40835E-009	-5.25244E-008	5.59328E-008	-2.43000E-001	3.77706E-004	6	..........a	-327.68
	68	6.9	-1.88796E-001	-2.38911E-001	-2.13854E-001	4.54549E-009	-5.05619E-008	5.51073E-008	-2.39000E-001	3.63373E-004	6	..........a	-327.68
	70	7.1	-1.84929E-001	-2.34841E-001	-2.09885E-001	5.47495E-009	-4.86316E-008	5.41066E-008	-2.35000E-001	3.63873E-004	6	..........a	-327.68
	72	7.3	-1.80833E-001	-2.30905E-001	-2.05869E-001	6.36606E-009	-4.69114E-008	5.32774E-008	-2.31000E-001	3.61539E-004	6	..........a	-327.68
	74	7.5	-1.76876E-001	-2.26852E-001	-2.01864E-001	7.57855E-009	-4.51575E-008	5.27360E-008	-2.27000E-001	3.75039E-004	6	..........a	-327.68
	76	7.7	-1.72882E-001	-2.22905E-001	-1.97894E-001	8.39832E-009	-4.34176E-008	5.18159E-008	-2.23000E-001	3.70873E-004	6	..........a	-327.68
	78	7.9	-1.68902E-001	-2.18880E-001	-1.93891E-001	9.35344E-009	-4.17684E-008	5.11218E-008	-2.19000E-001	3.54873E-004	6	..........a	-327.68
	80	8.1	-1.64743E-001	-2.14904E-001	-1.89824E-001	1.01699E-008	-4.02245E-008	5.03944E-008	-2.15000E-001	3.51539E-004	6	..........a	-327.68
	82	8.3	-1.60932E-001	-2.10864E-001	-1.85898E-001	1.12303E-008	-3.87207E-008	4.99510E-008	-2.11000E-001	3.60206E-004	6	..........a	-327.68
	84	8.5	-1.56837E-001	-2.06919E-001	-1.81878E-001	1.19588E-008	-3.74058E-008	4.93646E-008	-2.07000E-001	3.48373E-004	6	..........a	-327.68
	86	8.7	-1.52909E-001	-2.02845E-001	-1.77877E-001	1.27282E-008	-3.63890E-008	4.91172E-008	-2.03000E-001	3.61873E-004	6	..........a	-327.68
	88	8.9	-1.48878E-001	-1.98923E-001	-1.73900E-001	1.35283E-008	-3.49669E-008	4.84952E-008	-1.99000E-001	3.52373E-004	6	..........a	-327.68
	90	9.1	-1.44895E-001	-1.94877E-001	-1.69886E-001	1.42437E-008	-3.41284E-008	4.83722E-008	-1.95000E-001	3.52206E-004	6	..........a	-327.68
	92	9.3	-1.40903E-001	-1.90947E-001	-1.65925E-001	1.50075E-008	-3.30200E-008	4.80274E-008	-1.91000E-001	3.56373E-004	6	..........a	-327.68
	94	9.5	-1.36907E-001	-1.86852E-001	-1.61879E-001	1.58349E-008	-3.17511E-008	4.75861E-008	-1.87000E-001	3.62539E-004	6	..........a	-327.68
	96	9.7	-1.32793E-001	-1.82900E-001	-1.57847E-001	1.64290E-008	-3.09987E-008	4.74277E-008	-1.83000E-001	3.51039E-004	6	..........a	-327.68
	98	9.9	-1.28862E-001	-1.78840E-001	-1.53851E-001	1.71988E-008	-3.02743E-008	4.74730E-008	-1.79000E-001	3.46539E-004	6	..........a	-327.68
	100	10.1	-1.24873E-001	-1.74919E-001	-1.49896E-001	1.76508E-008	-2.92451E-008	4.68960E-008	-1.75000E-001	3.42039E-004	6	..........a	-327.68

File: SWV_10Hz STD3 50  fgml 081020_#10.DTA
EXPLAIN
TAG	SQUARE_WAVE
TITLE	LABEL	Square Wave Voltammetry	Test Identifier
DATE	LABEL	8/10/2020	Date
TIME	LABEL	19:14:52	Time
NOTES	NOTES	1	Notes...
	 STD3 50  fg/mL 08102
PSTAT	PSTAT	REF600-24079	Potentiostat
VINIT	QUANT	-3.50000E-001	Initial E (V)
VFINAL	QUANT	-1.50000E-001	Final E (V)
STEPSIZE	QUANT	2.00000E+000	Step Size (mV)
TIMERRES	QUANT	3.33340E-005	&Timer Resolution
FREQUENCY	QUANT	1.00000E+001	Frequency (Hz)
PULSESIZE	QUANT	2.50000E+001	Pulse Size E (mV)
PULSEON	QUANT	1.00000E-001	Pulse &Time (s)
NOISEREJECT	TOGGLE	F	Noise Rejection
AREA	QUANT	2.00000E-002	Sample Area (cm^2)
IMODE	SELECTOR	1	I/E Range Mode
IRANGE	QUANT	1.00000E-003	Max Current (mA)
EQDELAY	IQUANT	10	Equil. Time (s)
IRCOMP	SELECTOR	0	IRComp
PFCOR	QUANT	5.00000E+001	PF Corr. (ohm)
CYCLES	IQUANT	101	C&ycles (#)
ELECTRODETYPE	SELECTOR	0	Electrode Type
STRIPPING	TOGGLE	F	Used for Stripping
POLARITY	TOGGLE	F	Signal Polarity
LINEFREQ	IQUANT	60	Line Frequency (Hz)
INTPERIOD	QUANT	3.3334E-005	Integration Period (s)
SEQUENCER	TOGGLE	TRUE	Run as Sequence
PSTATMODEL	IQUANT	4	Pstat Model
PSTATSECTION	LABEL	REF600-24079	Pstat Section
PSTATSERIALNO	LABEL	24079	Pstat Serial Number
CTRLMODE	IQUANT	1	Control Mode
ELECTROMETER	IQUANT	0	RE=0 or CS=1
IESTAB	IQUANT	2	I/E Stability
CASPEED	IQUANT	6	Control Amp Speed
CONVENTION	IQUANT	1	Current Convention
ICHRANGE	IQUANT	2	Ich Range
ICHRANGEMODE	TOGGLE	F	Ich Auto Range
ICHOFFSETENABLE	TOGGLE	F	Ich Offset Enable
ICHOFFSET	QUANT	0	Ich Offset (V)
ICHFILTER	IQUANT	2	Ich Filter
VCHRANGE	IQUANT	2	Vch Range
VCHRANGEMODE	TOGGLE	F	Vch Auto Range
VCHOFFSETENABLE	TOGGLE	F	Vch Offset Enable
VCHOFFSET	QUANT	0	Vch Offset (V)
VCHFILTER	IQUANT	2	Vch Filter
ACHRANGE	IQUANT	2	Ach Range
ACHOFFSETENABLE	TOGGLE	F	Ach Offset Enable
ACHOFFSET	QUANT	0	Ach Offset (V)
ACHFILTER	IQUANT	1	Ach Filter
IERANGELOWERLIMIT	IQUANT	1	I/E Range Lower Limit
IERANGEMODE	TOGGLE	F	I/E AutoRange
IERANGE	IQUANT	6	I/E Range
POSFEEDENABLE	TOGGLE	F	Positive Feedback IR Comp
POSFEEDRESISTANCE	QUANT	0	Positive Feedback Resistance (ohm)
ACHSELECT	IQUANT	0	Ach Select
SENSECABLEID	IQUANT	13	Sense Cable ID
PWRCABLEID	IQUANT	13	Power Cable ID
DCCALDATE	LABEL	6/30/2020	DC Calibration Date
ACCALDATE	LABEL	6/30/2020	AC Calibration Date
THERMOSELECT	IQUANT	1	Thermo Select
FRAMEWORKVERSION	LABEL	7.8.2	Framework Version
INSTRUMENTVERSION	LABEL	4.40	Instrument Version
CURVE	TABLE	101
	Pt	T	Vfwd	Vrev	Vstep	Ifwd	Irev	Idif	Sig	Ach	IERange	Over	Temp
	#	s	V	V	V	A	A	A	V	V	#	bits	deg C
	0	0.1	-3.24900E-001	-3.74913E-001	-3.49906E-001	-1.03044E-007	-2.01098E-007	9.80538E-008	-3.75000E-001	3.88373E-004	6	..........a	-327.68
	2	0.3	-3.20897E-001	-3.70794E-001	-3.45846E-001	-8.43141E-008	-1.88722E-007	1.04408E-007	-3.71000E-001	3.73373E-004	6	..........a	-327.68
	4	0.5	-3.16837E-001	-3.66937E-001	-3.41887E-001	-7.91572E-008	-1.80861E-007	1.01704E-007	-3.67000E-001	3.74539E-004	6	..........a	-327.68
	6	0.7	-3.12916E-001	-3.62833E-001	-3.37875E-001	-7.43806E-008	-1.73639E-007	9.92586E-008	-3.63000E-001	4.02539E-004	6	..........a	-327.68
	8	0.9	-3.08880E-001	-3.58902E-001	-3.33891E-001	-7.02060E-008	-1.66900E-007	9.66936E-008	-3.59000E-001	4.01206E-004	6	..........a	-327.68
	10	1.1	-3.04926E-001	-3.54848E-001	-3.29887E-001	-6.60275E-008	-1.60213E-007	9.41860E-008	-3.55000E-001	4.01706E-004	6	..........a	-327.68
	12	1.3	-3.00903E-001	-3.50901E-001	-3.25902E-001	-6.20560E-008	-1.53908E-007	9.18524E-008	-3.51000E-001	3.96039E-004	6	..........a	-327.68
	14	1.5	-2.96891E-001	-3.46892E-001	-3.21892E-001	-5.79628E-008	-1.48067E-007	9.01038E-008	-3.47000E-001	3.84206E-004	6	..........a	-327.68
	16	1.7	-2.92813E-001	-3.42915E-001	-3.17864E-001	-5.41880E-008	-1.42380E-007	8.81915E-008	-3.43000E-001	3.85373E-004	6	..........a	-327.68
	18	1.9	-2.88925E-001	-3.38859E-001	-3.13892E-001	-5.05388E-008	-1.36556E-007	8.60169E-008	-3.39000E-001	3.87373E-004	6	..........a	-327.68
	20	2.1	-2.84882E-001	-3.34897E-001	-3.09889E-001	-4.70397E-008	-1.30989E-007	8.39490E-008	-3.35000E-001	3.72039E-004	6	..........a	-327.68
	22	2.3	-2.80954E-001	-3.30845E-001	-3.05900E-001	-4.35946E-008	-1.25832E-007	8.22375E-008	-3.31000E-001	3.93873E-004	6	..........a	-327.68
	24	2.5	-2.76893E-001	-3.26906E-001	-3.01900E-001	-4.04262E-008	-1.20837E-007	8.04106E-008	-3.27000E-001	3.83706E-004	6	..........a	-327.68
	26	2.7	-2.72906E-001	-3.22875E-001	-2.97890E-001	-3.68338E-008	-1.16038E-007	7.92041E-008	-3.23000E-001	3.72873E-004	6	..........a	-327.68
	28	2.9	-2.68904E-001	-3.18932E-001	-2.93918E-001	-3.38381E-008	-1.11570E-007	7.77319E-008	-3.19000E-001	3.85373E-004	6	..........a	-327.68
	30	3.1	-2.64940E-001	-3.14899E-001	-2.89919E-001	-3.09187E-008	-1.07286E-007	7.63677E-008	-3.15000E-001	3.80873E-004	6	..........a	-327.68
	32	3.3	-2.60855E-001	-3.10902E-001	-2.85878E-001	-2.78756E-008	-1.02898E-007	7.50219E-008	-3.11000E-001	4.11539E-004	6	..........a	-327.68
	34	3.5	-2.56904E-001	-3.06858E-001	-2.81881E-001	-2.52190E-008	-9.90160E-008	7.37971E-008	-3.07000E-001	4.00539E-004	6	..........a	-327.68
	36	3.7	-2.52907E-001	-3.02929E-001	-2.77918E-001	-2.24813E-008	-9.52622E-008	7.27809E-008	-3.03000E-001	3.82039E-004	6	..........a	-327.68
	38	3.9	-2.48906E-001	-2.98886E-001	-2.73896E-001	-2.01160E-008	-9.15271E-008	7.14111E-008	-2.99000E-001	3.79873E-004	6	..........a	-327.68
	40	4.1	-2.44907E-001	-2.94915E-001	-2.69911E-001	-1.74536E-008	-8.80723E-008	7.06186E-008	-2.95000E-001	3.85206E-004	6	..........a	-327.68
	42	4.3	-2.40941E-001	-2.90848E-001	-2.65895E-001	-1.52327E-008	-8.46855E-008	6.94528E-008	-2.91000E-001	3.93539E-004	6	..........a	-327.68
	44	4.5	-2.36884E-001	-2.86924E-001	-2.61904E-001	-1.33588E-008	-8.15751E-008	6.82163E-008	-2.87000E-001	3.87206E-004	6	..........a	-327.68
	46	4.7	-2.32896E-001	-2.82849E-001	-2.57873E-001	-1.13779E-008	-7.84587E-008	6.70809E-008	-2.83000E-001	3.73206E-004	6	..........a	-327.68
	48	4.9	-2.28830E-001	-2.78899E-001	-2.53864E-001	-9.44962E-009	-7.54764E-008	6.60267E-008	-2.79000E-001	3.88373E-004	6	..........a	-327.68
	50	5.1	-2.24898E-001	-2.74870E-001	-2.49884E-001	-7.59038E-009	-7.24326E-008	6.48423E-008	-2.75000E-001	3.80873E-004	6	..........a	-327.68
	52	5.3	-2.20891E-001	-2.70882E-001	-2.45887E-001	-5.79115E-009	-6.95566E-008	6.37655E-008	-2.71000E-001	3.82039E-004	6	..........a	-327.68
	54	5.5	-2.16945E-001	-2.66798E-001	-2.41871E-001	-4.26896E-009	-6.68819E-008	6.26130E-008	-2.67000E-001	3.90539E-004	6	..........a	-327.68
	56	5.7	-2.12904E-001	-2.62891E-001	-2.37897E-001	-2.77044E-009	-6.40982E-008	6.13278E-008	-2.63000E-001	3.98039E-004	6	..........a	-327.68
	58	5.9	-2.08897E-001	-2.58843E-001	-2.33870E-001	-1.23091E-009	-6.14886E-008	6.02577E-008	-2.59000E-001	3.69873E-004	6	..........a	-327.68
	60	6.1	-2.04871E-001	-2.54904E-001	-2.29887E-001	-5.57571E-011	-5.91586E-008	5.91029E-008	-2.55000E-001	3.89706E-004	6	..........a	-327.68
	62	6.3	-2.00907E-001	-2.50856E-001	-2.25881E-001	1.24041E-009	-5.68997E-008	5.81401E-008	-2.51000E-001	3.86706E-004	6	..........a	-327.68
	64	6.5	-1.96900E-001	-2.46875E-001	-2.21887E-001	2.57058E-009	-5.45857E-008	5.71563E-008	-2.47000E-001	3.93373E-004	6	..........a	-327.68
	66	6.7	-1.92911E-001	-2.42809E-001	-2.17860E-001	3.55070E-009	-5.24778E-008	5.60285E-008	-2.43000E-001	3.56206E-004	6	..........a	-327.68
	68	6.9	-1.88820E-001	-2.38910E-001	-2.13865E-001	4.58150E-009	-5.03632E-008	5.49447E-008	-2.39000E-001	3.70539E-004	6	..........a	-327.68
	70	7.1	-1.84928E-001	-2.34827E-001	-2.09877E-001	5.83099E-009	-4.85356E-008	5.43666E-008	-2.35000E-001	3.68539E-004	6	..........a	-327.68
	72	7.3	-1.80814E-001	-2.30888E-001	-2.05851E-001	6.74311E-009	-4.66967E-008	5.34398E-008	-2.31000E-001	3.63206E-004	6	..........a	-327.68
	74	7.5	-1.76872E-001	-2.26847E-001	-2.01860E-001	7.72590E-009	-4.47768E-008	5.25027E-008	-2.27000E-001	3.73706E-004	6	..........a	-327.68
	76	7.7	-1.72860E-001	-2.22887E-001	-1.97873E-001	8.77170E-009	-4.32036E-008	5.19753E-008	-2.23000E-001	3.66706E-004	6	..........a	-327.68
	78	7.9	-1.68888E-001	-2.18878E-001	-1.93883E-001	9.55947E-009	-4.15524E-008	5.11118E-008	-2.19000E-001	3.53373E-004	6	..........a	-327.68
	80	8.1	-1.64743E-001	-2.14902E-001	-1.89823E-001	1.05833E-008	-4.03185E-008	5.09018E-008	-2.15000E-001	3.71539E-004	6	..........a	-327.68
	82	8.3	-1.60932E-001	-2.10866E-001	-1.85899E-001	1.14797E-008	-3.89384E-008	5.04181E-008	-2.11000E-001	3.59873E-004	6	..........a	-327.68
	84	8.5	-1.56837E-001	-2.06902E-001	-1.81870E-001	1.24318E-008	-3.74775E-008	4.99093E-008	-2.07000E-001	3.75873E-004	6	..........a	-327.68
	86	8.7	-1.52912E-001	-2.02854E-001	-1.77883E-001	1.31096E-008	-3.59527E-008	4.90622E-008	-2.03000E-001	3.62206E-004	6	..........a	-327.68
	88	8.9	-1.48871E-001	-1.98921E-001	-1.73896E-001	1.39510E-008	-3.49179E-008	4.88689E-008	-1.99000E-001	3.73539E-004	6	..........a	-327.68
	90	9.1	-1.44893E-001	-1.94882E-001	-1.69888E-001	1.47095E-008	-3.37764E-008	4.84858E-008	-1.95000E-001	3.67706E-004	6	..........a	-327.68
	92	9.3	-1.40902E-001	-1.90934E-001	-1.65918E-001	1.54822E-008	-3.26386E-008	4.81208E-008	-1.91000E-001	3.59206E-004	6	..........a	-327.68
	94	9.5	-1.36916E-001	-1.86856E-001	-1.61886E-001	1.60876E-008	-3.16558E-008	4.77434E-008	-1.87000E-001	3.61373E-004	6	..........a	-327.68
	96	9.7	-1.32794E-001	-1.82893E-001	-1.57843E-001	1.67420E-008	-3.08603E-008	4.76024E-008	-1.83000E-001	3.69039E-004	6	..........a	-327.68
	98	9.9	-1.28864E-001	-1.78834E-001	-1.53849E-001	1.74905E-008	-3.00166E-008	4.75070E-008	-1.79000E-001	3.53706E-004	6	..........a	-327.68
	100	10.1	-1.24858E-001	-1.74903E-001	-1.49880E-001	1.82522E-008	-2.91281E-008	4.73804E-008	-1.75000E-001	3.57706E-004	6	..........a	-327.68