Folder: EchemAnalysis_AMA/Sample Data/Concentration Curve Data/C-COM2 (part 5)

File: SWV_10Hz STD2 100  fgml 081020_#5.DTA
EXPLAIN
TAG	SQUARE_WAVE
TITLE	LABEL	Square Wave Voltammetry	Test Identifier
DATE	LABEL	8/10/2020	Date
TIME	LABEL	20:42:49	Time
NOTES	NOTES	1	Notes...
	 STD2 100  fg/mL 08102
PSTAT	PSTAT	REF600-24079	Potentiostat
VINIT	QUANT	-3.50000E-001	Initial E (V)
VFINAL	QUANT	-1.50000E-001	Final E (V)
STEPSIZE	QUANT	2.00000E+000	Step Size (mV)
TIMERRES	QUANT	3.33340E-005	&Timer Resolution
FREQUENCY	QUANT	1.00000E+001	Frequency (Hz)
PULSESIZE	QUANT	2.50000E+001	Pulse Size E (mV)
PULSEON	QUANT	1.00000E-001	Pulse &Time (s)
NOISEREJECT	TOGGLE	F	Noise Rejection
AREA	QUANT	2.00000E-002	Sample Area (cm^2)
IMODE	SELECTOR	1	I/E Range Mode
IRANGE	QUANT	1.00000E-003	Max Current (mA)
EQDELAY	IQUANT	10	Equil. Time (s)
IRCOMP	SELECTOR	0	IRComp
PFCOR	QUANT	5.00000E+001	PF Corr. (ohm)
CYCLES	IQUANT	101	C&ycles (#)
ELECTRODETYPE	SELECTOR	0	Electrode Type
STRIPPING	TOGGLE	F	Used for Stripping
POLARITY	TOGGLE	F	Signal Polarity
LINEFREQ	IQUANT	60	Line Frequency (Hz)
INTPERIOD	QUANT	3.3334E-005	Integration Period (s)
SEQUENCER	TOGGLE	TRUE	Run as Sequence
PSTATMODEL	IQUANT	4	Pstat Model
PSTATSECTION	LABEL	REF600-24079	Pstat Section
PSTATSERIALNO	LABEL	24079	Pstat Serial Number
CTRLMODE	IQUANT	1	Control Mode
ELECTROMETER	IQUANT	0	RE=0 or CS=1
IESTAB	IQUANT	2	I/E Stability
CASPEED	IQUANT	6	Control Amp Speed
CONVENTION	IQUANT	1	Current Convention
ICHRANGE	IQUANT	2	Ich Range
ICHRANGEMODE	TOGGLE	F	Ich Auto Range
ICHOFFSETENABLE	TOGGLE	F	Ich Offset Enable
ICHOFFSET	QUANT	0	Ich Offset (V)
ICHFILTER	IQUANT	2	Ich Filter
VCHRANGE	IQUANT	2	Vch Range
VCHRANGEMODE	TOGGLE	F	Vch Auto Range
VCHOFFSETENABLE	TOGGLE	F	Vch Offset Enable
VCHOFFSET	QUANT	0	Vch Offset (V)
VCHFILTER	IQUANT	2	Vch Filter
ACHRANGE	IQUANT	2	Ach Range
ACHOFFSETENABLE	TOGGLE	F	Ach Offset Enable
ACHOFFSET	QUANT	0	Ach Offset (V)
ACHFILTER	IQUANT	1	Ach Filter
IERANGELOWERLIMIT	IQUANT	1	I/E Range Lower Limit
IERANGEMODE	TOGGLE	F	I/E AutoRange
IERANGE	IQUANT	6	I/E Range
POSFEEDENABLE	TOGGLE	F	Positive Feedback IR Comp
POSFEEDRESISTANCE	QUANT	0	Positive Feedback Resistance (ohm)
ACHSELECT	IQUANT	0	Ach Select
SENSECABLEID	IQUANT	13	Sense Cable ID
PWRCABLEID	IQUANT	13	Power Cable ID
DCCALDATE	LABEL	6/30/2020	DC Calibration Date
ACCALDATE	LABEL	6/30/2020	AC Calibration Date
THERMOSELECT	IQUANT	1	Thermo Select
FRAMEWORKVERSION	LABEL	7.8.2	Framework Version
INSTRUMENTVERSION	LABEL	4.40	Instrument Version
CURVE	TABLE	101
	Pt	T	Vfwd	Vrev	Vstep	Ifwd	Irev	Idif	Sig	Ach	IERange	Over	Temp
	#	s	V	V	V	A	A	A	V	V	#	bits	deg C
	0	0.1	-3.24889E-001	-3.74906E-001	-3.49897E-001	-9.01312E-008	-1.85135E-007	9.50037E-008	-3.75000E-001	3.53373E-004	6	..........a	-327.68
	2	0.3	-3.20889E-001	-3.70800E-001	-3.45845E-001	-7.05311E-008	-1.72444E-007	1.01913E-007	-3.71000E-001	3.82206E-004	6	..........a	-327.68
	4	0.5	-3.16796E-001	-3.66947E-001	-3.41871E-001	-6.51694E-008	-1.64616E-007	9.94463E-008	-3.67000E-001	3.81206E-004	6	..........a	-327.68
	6	0.7	-3.12908E-001	-3.62842E-001	-3.37875E-001	-6.07055E-008	-1.57643E-007	9.69377E-008	-3.63000E-001	3.86039E-004	6	..........a	-327.68
	8	0.9	-3.08887E-001	-3.58887E-001	-3.33887E-001	-5.67736E-008	-1.50934E-007	9.41606E-008	-3.59000E-001	3.86873E-004	6	..........a	-327.68
	10	1.1	-3.04921E-001	-3.54848E-001	-3.29884E-001	-5.29221E-008	-1.44792E-007	9.18700E-008	-3.55000E-001	3.63873E-004	6	..........a	-327.68
	12	1.3	-3.00906E-001	-3.50903E-001	-3.25904E-001	-4.92347E-008	-1.39077E-007	8.98424E-008	-3.51000E-001	3.68539E-004	6	..........a	-327.68
	14	1.5	-2.96909E-001	-3.46898E-001	-3.21904E-001	-4.55439E-008	-1.33028E-007	8.74845E-008	-3.47000E-001	3.62539E-004	6	..........a	-327.68
	16	1.7	-2.92774E-001	-3.42923E-001	-3.17848E-001	-4.21234E-008	-1.27538E-007	8.54142E-008	-3.43000E-001	3.79873E-004	6	..........a	-327.68
	18	1.9	-2.88925E-001	-3.38855E-001	-3.13890E-001	-3.87557E-008	-1.22350E-007	8.35940E-008	-3.39000E-001	3.81539E-004	6	..........a	-327.68
	20	2.1	-2.84822E-001	-3.34914E-001	-3.09868E-001	-3.54606E-008	-1.17512E-007	8.20511E-008	-3.35000E-001	3.56373E-004	6	..........a	-327.68
	22	2.3	-2.80914E-001	-3.30845E-001	-3.05880E-001	-3.21908E-008	-1.12687E-007	8.04966E-008	-3.31000E-001	3.69873E-004	6	..........a	-327.68
	24	2.5	-2.76903E-001	-3.26899E-001	-3.01901E-001	-2.91885E-008	-1.08030E-007	7.88417E-008	-3.27000E-001	3.70873E-004	6	..........a	-327.68
	26	2.7	-2.72915E-001	-3.22886E-001	-2.97901E-001	-2.60161E-008	-1.03694E-007	7.76779E-008	-3.23000E-001	3.79206E-004	6	..........a	-327.68
	28	2.9	-2.68911E-001	-3.18936E-001	-2.93923E-001	-2.32157E-008	-9.96068E-008	7.63910E-008	-3.19000E-001	3.75039E-004	6	..........a	-327.68
	30	3.1	-2.64938E-001	-3.14924E-001	-2.89931E-001	-2.06224E-008	-9.57299E-008	7.51076E-008	-3.15000E-001	3.80873E-004	6	..........a	-327.68
	32	3.3	-2.60834E-001	-3.10905E-001	-2.85870E-001	-1.77610E-008	-9.19611E-008	7.42001E-008	-3.11000E-001	3.75706E-004	6	..........a	-327.68
	34	3.5	-2.56912E-001	-3.06841E-001	-2.81876E-001	-1.51193E-008	-8.84027E-008	7.32833E-008	-3.07000E-001	3.63539E-004	6	..........a	-327.68
	36	3.7	-2.52886E-001	-3.02931E-001	-2.77909E-001	-1.28477E-008	-8.51256E-008	7.22779E-008	-3.03000E-001	3.65706E-004	6	..........a	-327.68
	38	3.9	-2.48901E-001	-2.98879E-001	-2.73890E-001	-1.05191E-008	-8.17225E-008	7.12034E-008	-2.99000E-001	3.61706E-004	6	..........a	-327.68
	40	4.1	-2.44905E-001	-2.94892E-001	-2.69898E-001	-8.48716E-009	-7.87224E-008	7.02353E-008	-2.95000E-001	3.79873E-004	6	..........a	-327.68
	42	4.3	-2.40926E-001	-2.90819E-001	-2.65872E-001	-6.37489E-009	-7.58331E-008	6.94582E-008	-2.91000E-001	3.79706E-004	6	..........a	-327.68
	44	4.5	-2.36887E-001	-2.86901E-001	-2.61894E-001	-4.47599E-009	-7.29700E-008	6.84941E-008	-2.87000E-001	3.89206E-004	6	..........a	-327.68
	46	4.7	-2.32879E-001	-2.82845E-001	-2.57862E-001	-2.91612E-009	-7.01443E-008	6.72282E-008	-2.83000E-001	3.85539E-004	6	..........a	-327.68
	48	4.9	-2.28859E-001	-2.78895E-001	-2.53877E-001	-1.09722E-009	-6.74883E-008	6.63911E-008	-2.79000E-001	3.66539E-004	6	..........a	-327.68
	50	5.1	-2.24911E-001	-2.74865E-001	-2.49888E-001	2.33280E-010	-6.48197E-008	6.50529E-008	-2.75000E-001	3.78039E-004	6	..........a	-327.68
	52	5.3	-2.20902E-001	-2.70876E-001	-2.45889E-001	1.62412E-009	-6.23960E-008	6.40201E-008	-2.71000E-001	3.85539E-004	6	..........a	-327.68
	54	5.5	-2.16890E-001	-2.66814E-001	-2.41852E-001	2.90695E-009	-5.98760E-008	6.27830E-008	-2.67000E-001	3.71373E-004	6	..........a	-327.68
	56	5.7	-2.12910E-001	-2.62902E-001	-2.37906E-001	3.88708E-009	-5.74154E-008	6.13025E-008	-2.63000E-001	3.70373E-004	6	..........a	-327.68
	58	5.9	-2.08909E-001	-2.58844E-001	-2.33876E-001	4.87720E-009	-5.48471E-008	5.97243E-008	-2.59000E-001	3.56706E-004	6	..........a	-327.68
	60	6.1	-2.04841E-001	-2.54910E-001	-2.29875E-001	5.76198E-009	-5.28198E-008	5.85818E-008	-2.55000E-001	3.58373E-004	6	..........a	-327.68
	62	6.3	-2.00896E-001	-2.50874E-001	-2.25885E-001	7.04715E-009	-5.05329E-008	5.75800E-008	-2.51000E-001	3.51706E-004	6	..........a	-327.68
	64	6.5	-1.96886E-001	-2.46902E-001	-2.21894E-001	7.96526E-009	-4.85866E-008	5.65519E-008	-2.47000E-001	3.45873E-004	6	..........a	-327.68
	66	6.7	-1.92913E-001	-2.42802E-001	-2.17858E-001	8.68669E-009	-4.64583E-008	5.51450E-008	-2.43000E-001	3.45039E-004	6	..........a	-327.68
	68	6.9	-1.88755E-001	-2.38926E-001	-2.13840E-001	9.56513E-009	-4.46488E-008	5.42139E-008	-2.39000E-001	3.42373E-004	6	..........a	-327.68
	70	7.1	-1.84908E-001	-2.34853E-001	-2.09881E-001	1.05246E-008	-4.29032E-008	5.34278E-008	-2.35000E-001	3.62373E-004	6	..........a	-327.68
	72	7.3	-1.80840E-001	-2.30897E-001	-2.05869E-001	1.13817E-008	-4.09916E-008	5.23733E-008	-2.31000E-001	3.69039E-004	6	..........a	-327.68
	74	7.5	-1.76885E-001	-2.26845E-001	-2.01865E-001	1.21798E-008	-3.95394E-008	5.17192E-008	-2.27000E-001	3.51706E-004	6	..........a	-327.68
	76	7.7	-1.72884E-001	-2.22900E-001	-1.97892E-001	1.27505E-008	-3.81396E-008	5.08901E-008	-2.23000E-001	3.53539E-004	6	..........a	-327.68
	78	7.9	-1.68902E-001	-2.18887E-001	-1.93895E-001	1.36947E-008	-3.65037E-008	5.01984E-008	-2.19000E-001	3.57873E-004	6	..........a	-327.68
	80	8.1	-1.64742E-001	-2.14927E-001	-1.89835E-001	1.42151E-008	-3.53282E-008	4.95433E-008	-2.15000E-001	3.56873E-004	6	..........a	-327.68
	82	8.3	-1.60922E-001	-2.10885E-001	-1.85903E-001	1.50752E-008	-3.41631E-008	4.92383E-008	-2.11000E-001	3.45039E-004	6	..........a	-327.68
	84	8.5	-1.56788E-001	-2.06917E-001	-1.81853E-001	1.56606E-008	-3.29696E-008	4.86302E-008	-2.07000E-001	3.56539E-004	6	..........a	-327.68
	86	8.7	-1.52897E-001	-2.02847E-001	-1.77872E-001	1.63823E-008	-3.20102E-008	4.83925E-008	-2.03000E-001	3.43373E-004	6	..........a	-327.68
	88	8.9	-1.48872E-001	-1.98904E-001	-1.73888E-001	1.70858E-008	-3.08930E-008	4.79788E-008	-1.99000E-001	3.43706E-004	6	..........a	-327.68
	90	9.1	-1.44892E-001	-1.94882E-001	-1.69887E-001	1.76112E-008	-2.99949E-008	4.76061E-008	-1.95000E-001	3.38373E-004	6	..........a	-327.68
	92	9.3	-1.40899E-001	-1.90947E-001	-1.65923E-001	1.81692E-008	-2.89274E-008	4.70967E-008	-1.91000E-001	3.51373E-004	6	..........a	-327.68
	94	9.5	-1.36885E-001	-1.86870E-001	-1.61878E-001	1.87503E-008	-2.80563E-008	4.68066E-008	-1.87000E-001	3.59206E-004	6	..........a	-327.68
	96	9.7	-1.32826E-001	-1.82884E-001	-1.57855E-001	1.93607E-008	-2.74652E-008	4.68260E-008	-1.83000E-001	3.60373E-004	6	..........a	-327.68
	98	9.9	-1.28893E-001	-1.78822E-001	-1.53857E-001	1.98784E-008	-2.66238E-008	4.65023E-008	-1.79000E-001	3.61539E-004	6	..........a	-327.68
	100	10.1	-1.24852E-001	-1.74906E-001	-1.49879E-001	2.03462E-008	-2.60434E-008	4.63896E-008	-1.75000E-001	3.58373E-004	6	..........a	-327.68

File: SWV_10Hz STD2 100  fgml 081020_#6.DTA
EXPLAIN
TAG	SQUARE_WAVE
TITLE	LABEL	Square Wave Voltammetry	Test Identifier
DATE	LABEL	8/10/2020	Date
TIME	LABEL	20:43:10	Time
NOTES	NOTES	1	Notes...
	 STD2 100  fg/mL 08102
PSTAT	PSTAT	REF600-24079	Potentiostat
VINIT	QUANT	-3.50000E-001	Initial E (V)
VFINAL	QUANT	-1.50000E-001	Final E (V)
STEPSIZE	QUANT	2.00000E+000	Step Size (mV)
TIMERRES	QUANT	3.33340E-005	&Timer Resolution
FREQUENCY	QUANT	1.00000E+001	Frequency (Hz)
PULSESIZE	QUANT	2.50000E+001	Pulse Size E (mV)
PULSEON	QUANT	1.00000E-001	Pulse &Time (s)
NOISEREJECT	TOGGLE	F	Noise Rejection
AREA	QUANT	2.00000E-002	Sample Area (cm^2)
IMODE	SELECTOR	1	I/E Range Mode
IRANGE	QUANT	1.00000E-003	Max Current (mA)
EQDELAY	IQUANT	10	Equil. Time (s)
IRCOMP	SELECTOR	0	IRComp
PFCOR	QUANT	5.00000E+001	PF Corr. (ohm)
CYCLES	IQUANT	101	C&ycles (#)
ELECTRODETYPE	SELECTOR	0	Electrode Type
STRIPPING	TOGGLE	F	Used for Stripping
POLARITY	TOGGLE	F	Signal Polarity
LINEFREQ	IQUANT	60	Line Frequency (Hz)
INTPERIOD	QUANT	3.3334E-005	Integration Period (s)
SEQUENCER	TOGGLE	TRUE	Run as Sequence
PSTATMODEL	IQUANT	4	Pstat Model
PSTATSECTION	LABEL	REF600-24079	Pstat Section
PSTATSERIALNO	LABEL	24079	Pstat Serial Number
CTRLMODE	IQUANT	1	Control Mode
ELECTROMETER	IQUANT	0	RE=0 or CS=1
IESTAB	IQUANT	2	I/E Stability
CASPEED	IQUANT	6	Control Amp Speed
CONVENTION	IQUANT	1	Current Convention
ICHRANGE	IQUANT	2	Ich Range
ICHRANGEMODE	TOGGLE	F	Ich Auto Range
ICHOFFSETENABLE	TOGGLE	F	Ich Offset Enable
ICHOFFSET	QUANT	0	Ich Offset (V)
ICHFILTER	IQUANT	2	Ich Filter
VCHRANGE	IQUANT	2	Vch Range
VCHRANGEMODE	TOGGLE	F	Vch Auto Range
VCHOFFSETENABLE	TOGGLE	F	Vch Offset Enable
VCHOFFSET	QUANT	0	Vch Offset (V)
VCHFILTER	IQUANT	2	Vch Filter
ACHRANGE	IQUANT	2	Ach Range
ACHOFFSETENABLE	TOGGLE	F	Ach Offset Enable
ACHOFFSET	QUANT	0	Ach Offset (V)
ACHFILTER	IQUANT	1	Ach Filter
IERANGELOWERLIMIT	IQUANT	1	I/E Range Lower Limit
IERANGEMODE	TOGGLE	F	I/E AutoRange
IERANGE	IQUANT	6	I/E Range
POSFEEDENABLE	TOGGLE	F	Positive Feedback IR Comp
POSFEEDRESISTANCE	QUANT	0	Positive Feedback Resistance (ohm)
ACHSELECT	IQUANT	0	Ach Select
SENSECABLEID	IQUANT	13	Sense Cable ID
PWRCABLEID	IQUANT	13	Power Cable ID
DCCALDATE	LABEL	6/30/2020	DC Calibration Date
ACCALDATE	LABEL	6/30/2020	AC Calibration Date
THERMOSELECT	IQUANT	1	Thermo Select
FRAMEWORKVERSION	LABEL	7.8.2	Framework Version
INSTRUMENTVERSION	LABEL	4.40	Instrument Version
CURVE	TABLE	101
	Pt	T	Vfwd	Vrev	Vstep	Ifwd	Irev	Idif	Sig	Ach	IERange	Over	Temp
	#	s	V	V	V	A	A	A	V	V	#	bits	deg C
	0	0.1	-3.24861E-001	-3.74901E-001	-3.49881E-001	-8.96315E-008	-1.83512E-007	9.38803E-008	-3.75000E-001	3.90873E-004	6	..........a	-327.68
	2	0.3	-3.20875E-001	-3.70794E-001	-3.45834E-001	-7.02624E-008	-1.70927E-007	1.00664E-007	-3.71000E-001	4.13373E-004	6	..........a	-327.68
	4	0.5	-3.16778E-001	-3.66916E-001	-3.41847E-001	-6.47653E-008	-1.63291E-007	9.85252E-008	-3.67000E-001	4.17206E-004	6	..........a	-327.68
	6	0.7	-3.12891E-001	-3.62827E-001	-3.37859E-001	-6.06078E-008	-1.56420E-007	9.58125E-008	-3.63000E-001	3.97873E-004	6	..........a	-327.68
	8	0.9	-3.08861E-001	-3.58893E-001	-3.33877E-001	-5.65129E-008	-1.50035E-007	9.35219E-008	-3.59000E-001	4.13873E-004	6	..........a	-327.68
	10	1.1	-3.04903E-001	-3.54833E-001	-3.29868E-001	-5.28168E-008	-1.44022E-007	9.12053E-008	-3.55000E-001	4.03873E-004	6	..........a	-327.68
	12	1.3	-3.00888E-001	-3.50892E-001	-3.25890E-001	-4.89983E-008	-1.38206E-007	8.92073E-008	-3.51000E-001	4.06373E-004	6	..........a	-327.68
	14	1.5	-2.96897E-001	-3.46874E-001	-3.21885E-001	-4.56759E-008	-1.32663E-007	8.69870E-008	-3.47000E-001	3.99539E-004	6	..........a	-327.68
	16	1.7	-2.92736E-001	-3.42906E-001	-3.17821E-001	-4.22248E-008	-1.27109E-007	8.48845E-008	-3.43000E-001	4.02706E-004	6	..........a	-327.68
	18	1.9	-2.88927E-001	-3.38857E-001	-3.13892E-001	-3.88667E-008	-1.22115E-007	8.32486E-008	-3.39000E-001	4.20039E-004	6	..........a	-327.68
	20	2.1	-2.84805E-001	-3.34906E-001	-3.09855E-001	-3.55879E-008	-1.17203E-007	8.16147E-008	-3.35000E-001	3.90039E-004	6	..........a	-327.68
	22	2.3	-2.80905E-001	-3.30832E-001	-3.05868E-001	-3.22859E-008	-1.12297E-007	8.00108E-008	-3.31000E-001	4.03873E-004	6	..........a	-327.68
	24	2.5	-2.76888E-001	-3.26902E-001	-3.01895E-001	-2.93465E-008	-1.07941E-007	7.85943E-008	-3.27000E-001	4.05373E-004	6	..........a	-327.68
	26	2.7	-2.72896E-001	-3.22876E-001	-2.97886E-001	-2.62504E-008	-1.03385E-007	7.71345E-008	-3.23000E-001	3.99706E-004	6	..........a	-327.68
	28	2.9	-2.68897E-001	-3.18929E-001	-2.93913E-001	-2.33331E-008	-9.95474E-008	7.62144E-008	-3.19000E-001	4.13873E-004	6	..........a	-327.68
	30	3.1	-2.64919E-001	-3.14911E-001	-2.89915E-001	-2.06984E-008	-9.58743E-008	7.51759E-008	-3.15000E-001	4.08706E-004	6	..........a	-327.68
	32	3.3	-2.60795E-001	-3.10904E-001	-2.85849E-001	-1.81321E-008	-9.20068E-008	7.38747E-008	-3.11000E-001	3.90873E-004	6	..........a	-327.68
	34	3.5	-2.56888E-001	-3.06841E-001	-2.81865E-001	-1.56781E-008	-8.87404E-008	7.30623E-008	-3.07000E-001	3.97039E-004	6	..........a	-327.68
	36	3.7	-2.52851E-001	-3.02926E-001	-2.77889E-001	-1.30304E-008	-8.53929E-008	7.23625E-008	-3.03000E-001	4.00373E-004	6	..........a	-327.68
	38	3.9	-2.48902E-001	-2.98879E-001	-2.73890E-001	-1.08731E-008	-8.20528E-008	7.11797E-008	-2.99000E-001	4.02873E-004	6	..........a	-327.68
	40	4.1	-2.44890E-001	-2.94870E-001	-2.69880E-001	-8.84288E-009	-7.87541E-008	6.99112E-008	-2.95000E-001	3.94206E-004	6	..........a	-327.68
	42	4.3	-2.40905E-001	-2.90818E-001	-2.65862E-001	-6.85129E-009	-7.60548E-008	6.92035E-008	-2.91000E-001	4.08873E-004	6	..........a	-327.68
	44	4.5	-2.36853E-001	-2.86901E-001	-2.61877E-001	-5.07006E-009	-7.31954E-008	6.81253E-008	-2.87000E-001	4.08539E-004	6	..........a	-327.68
	46	4.7	-2.32870E-001	-2.82833E-001	-2.57851E-001	-3.19316E-009	-7.04941E-008	6.73009E-008	-2.83000E-001	4.07206E-004	6	..........a	-327.68
	48	4.9	-2.28836E-001	-2.78887E-001	-2.53862E-001	-1.64629E-009	-6.78781E-008	6.62318E-008	-2.79000E-001	4.13873E-004	6	..........a	-327.68
	50	5.1	-2.24896E-001	-2.74869E-001	-2.49883E-001	-3.43794E-010	-6.51137E-008	6.47699E-008	-2.75000E-001	4.12873E-004	6	..........a	-327.68
	52	5.3	-2.20893E-001	-2.70873E-001	-2.45883E-001	1.31475E-009	-6.26637E-008	6.39785E-008	-2.71000E-001	4.06039E-004	6	..........a	-327.68
	54	5.5	-2.16896E-001	-2.66814E-001	-2.41855E-001	2.42322E-009	-6.03004E-008	6.27237E-008	-2.67000E-001	4.09873E-004	6	..........a	-327.68
	56	5.7	-2.12861E-001	-2.62890E-001	-2.37875E-001	3.32201E-009	-5.77191E-008	6.10411E-008	-2.63000E-001	4.17539E-004	6	..........a	-327.68
	58	5.9	-2.08889E-001	-2.58831E-001	-2.33860E-001	4.45215E-009	-5.52774E-008	5.97296E-008	-2.59000E-001	3.91873E-004	6	..........a	-327.68
	60	6.1	-2.04849E-001	-2.54905E-001	-2.29877E-001	5.58596E-009	-5.30998E-008	5.86858E-008	-2.55000E-001	4.05873E-004	6	..........a	-327.68
	62	6.3	-2.00890E-001	-2.50851E-001	-2.25870E-001	6.39740E-009	-5.10976E-008	5.74950E-008	-2.51000E-001	3.90039E-004	6	..........a	-327.68
	64	6.5	-1.96871E-001	-2.46884E-001	-2.21877E-001	7.34018E-009	-4.89587E-008	5.62988E-008	-2.47000E-001	3.84206E-004	6	..........a	-327.68
	66	6.7	-1.92900E-001	-2.42806E-001	-2.17853E-001	8.38665E-009	-4.69644E-008	5.53510E-008	-2.43000E-001	3.70706E-004	6	..........a	-327.68
	68	6.9	-1.88724E-001	-2.38919E-001	-2.13821E-001	9.23342E-009	-4.51862E-008	5.44196E-008	-2.39000E-001	3.84539E-004	6	..........a	-327.68
	70	7.1	-1.84894E-001	-2.34836E-001	-2.09865E-001	1.02035E-008	-4.35123E-008	5.37158E-008	-2.35000E-001	3.90206E-004	6	..........a	-327.68
	72	7.3	-1.80804E-001	-2.30890E-001	-2.05847E-001	1.08973E-008	-4.19254E-008	5.28227E-008	-2.31000E-001	3.87373E-004	6	..........a	-327.68
	74	7.5	-1.76847E-001	-2.26838E-001	-2.01842E-001	1.18394E-008	-4.01872E-008	5.20266E-008	-2.27000E-001	3.73539E-004	6	..........a	-327.68
	76	7.7	-1.72859E-001	-2.22891E-001	-1.97875E-001	1.24502E-008	-3.85523E-008	5.10025E-008	-2.23000E-001	3.75039E-004	6	..........a	-327.68
	78	7.9	-1.68892E-001	-2.18863E-001	-1.93878E-001	1.33573E-008	-3.72315E-008	5.05888E-008	-2.19000E-001	3.70873E-004	6	..........a	-327.68
	80	8.1	-1.64670E-001	-2.14922E-001	-1.89796E-001	1.39327E-008	-3.59823E-008	4.99150E-008	-2.15000E-001	3.87206E-004	6	..........a	-327.68
	82	8.3	-1.60912E-001	-2.10878E-001	-1.85895E-001	1.47838E-008	-3.46572E-008	4.94410E-008	-2.11000E-001	3.79206E-004	6	..........a	-327.68
	84	8.5	-1.56777E-001	-2.06897E-001	-1.81837E-001	1.52599E-008	-3.34780E-008	4.87379E-008	-2.07000E-001	3.99539E-004	6	..........a	-327.68
	86	8.7	-1.52869E-001	-2.02827E-001	-1.77848E-001	1.59880E-008	-3.22329E-008	4.82208E-008	-2.03000E-001	3.76206E-004	6	..........a	-327.68
	88	8.9	-1.48839E-001	-1.98897E-001	-1.73868E-001	1.66547E-008	-3.14811E-008	4.81358E-008	-1.99000E-001	3.71539E-004	6	..........a	-327.68
	90	9.1	-1.44886E-001	-1.94862E-001	-1.69874E-001	1.70718E-008	-3.03689E-008	4.74407E-008	-1.95000E-001	3.89206E-004	6	..........a	-327.68
	92	9.3	-1.40880E-001	-1.90917E-001	-1.65898E-001	1.77885E-008	-2.94868E-008	4.72753E-008	-1.91000E-001	3.84539E-004	6	..........a	-327.68
	94	9.5	-1.36901E-001	-1.86843E-001	-1.61872E-001	1.81966E-008	-2.86197E-008	4.68163E-008	-1.87000E-001	3.87873E-004	6	..........a	-327.68
	96	9.7	-1.32807E-001	-1.82899E-001	-1.57853E-001	1.90447E-008	-2.78476E-008	4.68923E-008	-1.83000E-001	3.83373E-004	6	..........a	-327.68
	98	9.9	-1.28867E-001	-1.78827E-001	-1.53847E-001	1.93927E-008	-2.71829E-008	4.65756E-008	-1.79000E-001	3.82706E-004	6	..........a	-327.68
	100	10.1	-1.24843E-001	-1.74893E-001	-1.49868E-001	1.98874E-008	-2.63854E-008	4.62729E-008	-1.75000E-001	3.81873E-004	6	..........a	-327.68