Folder: EchemAnalysis_AMA/Sample Data/Concentration Curve Data/C-COM1 (part 3)

File: SWV_10Hz STD1 10  fgml 081020_#6.DTA
EXPLAIN
TAG	SQUARE_WAVE
TITLE	LABEL	Square Wave Voltammetry	Test Identifier
DATE	LABEL	8/10/2020	Date
TIME	LABEL	17:31:08	Time
NOTES	NOTES	1	Notes...
	 STD1, 10  fg/mL 08102
PSTAT	PSTAT	REF600-24079	Potentiostat
VINIT	QUANT	-3.50000E-001	Initial E (V)
VFINAL	QUANT	-1.50000E-001	Final E (V)
STEPSIZE	QUANT	2.00000E+000	Step Size (mV)
TIMERRES	QUANT	3.33340E-005	&Timer Resolution
FREQUENCY	QUANT	1.00000E+001	Frequency (Hz)
PULSESIZE	QUANT	2.50000E+001	Pulse Size E (mV)
PULSEON	QUANT	1.00000E-001	Pulse &Time (s)
NOISEREJECT	TOGGLE	F	Noise Rejection
AREA	QUANT	2.00000E-002	Sample Area (cm^2)
IMODE	SELECTOR	1	I/E Range Mode
IRANGE	QUANT	1.00000E-003	Max Current (mA)
EQDELAY	IQUANT	10	Equil. Time (s)
IRCOMP	SELECTOR	0	IRComp
PFCOR	QUANT	5.00000E+001	PF Corr. (ohm)
CYCLES	IQUANT	101	C&ycles (#)
ELECTRODETYPE	SELECTOR	0	Electrode Type
STRIPPING	TOGGLE	F	Used for Stripping
POLARITY	TOGGLE	F	Signal Polarity
LINEFREQ	IQUANT	60	Line Frequency (Hz)
INTPERIOD	QUANT	3.3334E-005	Integration Period (s)
SEQUENCER	TOGGLE	TRUE	Run as Sequence
PSTATMODEL	IQUANT	4	Pstat Model
PSTATSECTION	LABEL	REF600-24079	Pstat Section
PSTATSERIALNO	LABEL	24079	Pstat Serial Number
CTRLMODE	IQUANT	1	Control Mode
ELECTROMETER	IQUANT	0	RE=0 or CS=1
IESTAB	IQUANT	2	I/E Stability
CASPEED	IQUANT	6	Control Amp Speed
CONVENTION	IQUANT	1	Current Convention
ICHRANGE	IQUANT	2	Ich Range
ICHRANGEMODE	TOGGLE	F	Ich Auto Range
ICHOFFSETENABLE	TOGGLE	F	Ich Offset Enable
ICHOFFSET	QUANT	0	Ich Offset (V)
ICHFILTER	IQUANT	2	Ich Filter
VCHRANGE	IQUANT	2	Vch Range
VCHRANGEMODE	TOGGLE	F	Vch Auto Range
VCHOFFSETENABLE	TOGGLE	F	Vch Offset Enable
VCHOFFSET	QUANT	0	Vch Offset (V)
VCHFILTER	IQUANT	2	Vch Filter
ACHRANGE	IQUANT	2	Ach Range
ACHOFFSETENABLE	TOGGLE	F	Ach Offset Enable
ACHOFFSET	QUANT	0	Ach Offset (V)
ACHFILTER	IQUANT	1	Ach Filter
IERANGELOWERLIMIT	IQUANT	1	I/E Range Lower Limit
IERANGEMODE	TOGGLE	F	I/E AutoRange
IERANGE	IQUANT	6	I/E Range
POSFEEDENABLE	TOGGLE	F	Positive Feedback IR Comp
POSFEEDRESISTANCE	QUANT	0	Positive Feedback Resistance (ohm)
ACHSELECT	IQUANT	0	Ach Select
SENSECABLEID	IQUANT	13	Sense Cable ID
PWRCABLEID	IQUANT	13	Power Cable ID
DCCALDATE	LABEL	6/30/2020	DC Calibration Date
ACCALDATE	LABEL	6/30/2020	AC Calibration Date
THERMOSELECT	IQUANT	1	Thermo Select
FRAMEWORKVERSION	LABEL	7.8.2	Framework Version
INSTRUMENTVERSION	LABEL	4.40	Instrument Version
CURVE	TABLE	101
	Pt	T	Vfwd	Vrev	Vstep	Ifwd	Irev	Idif	Sig	Ach	IERange	Over	Temp
	#	s	V	V	V	A	A	A	V	V	#	bits	deg C
	0	0.1	-3.24973E-001	-3.74937E-001	-3.49955E-001	-1.24339E-007	-2.35722E-007	1.11384E-007	-3.75000E-001	4.30539E-004	6	..........a	-327.68
	2	0.3	-3.20944E-001	-3.70859E-001	-3.45901E-001	-1.06536E-007	-2.21767E-007	1.15231E-007	-3.71000E-001	4.32206E-004	6	..........a	-327.68
	4	0.5	-3.16959E-001	-3.66943E-001	-3.41951E-001	-9.99605E-008	-2.12323E-007	1.12363E-007	-3.67000E-001	4.23039E-004	6	..........a	-327.68
	6	0.7	-3.12975E-001	-3.62880E-001	-3.37927E-001	-9.47085E-008	-2.03716E-007	1.09008E-007	-3.63000E-001	4.18539E-004	6	..........a	-327.68
	8	0.9	-3.08975E-001	-3.58936E-001	-3.33956E-001	-8.94651E-008	-1.95545E-007	1.06080E-007	-3.59000E-001	4.24539E-004	6	..........a	-327.68
	10	1.1	-3.05002E-001	-3.54917E-001	-3.29960E-001	-8.46085E-008	-1.87809E-007	1.03200E-007	-3.55000E-001	4.03039E-004	6	..........a	-327.68
	12	1.3	-3.00989E-001	-3.50931E-001	-3.25960E-001	-7.97926E-008	-1.80102E-007	1.00310E-007	-3.51000E-001	4.27206E-004	6	..........a	-327.68
	14	1.5	-2.96968E-001	-3.46948E-001	-3.21958E-001	-7.50806E-008	-1.72955E-007	9.78748E-008	-3.47000E-001	4.23873E-004	6	..........a	-327.68
	16	1.7	-2.92956E-001	-3.42901E-001	-3.17929E-001	-7.04971E-008	-1.65915E-007	9.54181E-008	-3.43000E-001	4.33873E-004	6	..........a	-327.68
	18	1.9	-2.88956E-001	-3.38904E-001	-3.13930E-001	-6.62152E-008	-1.59402E-007	9.31868E-008	-3.39000E-001	4.33039E-004	6	..........a	-327.68
	20	2.1	-2.84942E-001	-3.34928E-001	-3.09935E-001	-6.19523E-008	-1.52936E-007	9.09832E-008	-3.35000E-001	4.19706E-004	6	..........a	-327.68
	22	2.3	-2.81000E-001	-3.30904E-001	-3.05952E-001	-5.79521E-008	-1.46713E-007	8.87610E-008	-3.31000E-001	4.20873E-004	6	..........a	-327.68
	24	2.5	-2.76978E-001	-3.26944E-001	-3.01961E-001	-5.39956E-008	-1.41006E-007	8.70107E-008	-3.27000E-001	4.20873E-004	6	..........a	-327.68
	26	2.7	-2.72960E-001	-3.22939E-001	-2.97949E-001	-5.00625E-008	-1.35280E-007	8.52175E-008	-3.23000E-001	4.22706E-004	6	..........a	-327.68
	28	2.9	-2.68966E-001	-3.18908E-001	-2.93937E-001	-4.65940E-008	-1.30011E-007	8.34169E-008	-3.19000E-001	4.15873E-004	6	..........a	-327.68
	30	3.1	-2.65025E-001	-3.14954E-001	-2.89990E-001	-4.31566E-008	-1.24889E-007	8.17321E-008	-3.15000E-001	4.19039E-004	6	..........a	-327.68
	32	3.3	-2.60953E-001	-3.10917E-001	-2.85935E-001	-3.95985E-008	-1.19835E-007	8.02369E-008	-3.11000E-001	4.24706E-004	6	..........a	-327.68
	34	3.5	-2.56979E-001	-3.06904E-001	-2.81942E-001	-3.62917E-008	-1.15487E-007	7.91951E-008	-3.07000E-001	4.32873E-004	6	..........a	-327.68
	36	3.7	-2.53004E-001	-3.02949E-001	-2.77976E-001	-3.30330E-008	-1.10841E-007	7.78076E-008	-3.03000E-001	4.27206E-004	6	..........a	-327.68
	38	3.9	-2.48979E-001	-2.98942E-001	-2.73960E-001	-3.00726E-008	-1.06628E-007	7.65551E-008	-2.99000E-001	4.28373E-004	6	..........a	-327.68
	40	4.1	-2.44960E-001	-2.94933E-001	-2.69946E-001	-2.72405E-008	-1.02294E-007	7.50539E-008	-2.95000E-001	4.23539E-004	6	..........a	-327.68
	42	4.3	-2.41008E-001	-2.90878E-001	-2.65943E-001	-2.45835E-008	-9.86160E-008	7.40324E-008	-2.91000E-001	4.16539E-004	6	..........a	-327.68
	44	4.5	-2.36940E-001	-2.86932E-001	-2.61936E-001	-2.17762E-008	-9.49292E-008	7.31530E-008	-2.87000E-001	4.30539E-004	6	..........a	-327.68
	46	4.7	-2.32991E-001	-2.82887E-001	-2.57939E-001	-1.94486E-008	-9.11007E-008	7.16521E-008	-2.83000E-001	4.28873E-004	6	..........a	-327.68
	48	4.9	-2.28955E-001	-2.78967E-001	-2.53961E-001	-1.72226E-008	-8.76086E-008	7.03859E-008	-2.79000E-001	4.29206E-004	6	..........a	-327.68
	50	5.1	-2.24981E-001	-2.74932E-001	-2.49956E-001	-1.49693E-008	-8.42218E-008	6.92525E-008	-2.75000E-001	4.40039E-004	6	..........a	-327.68
	52	5.3	-2.20969E-001	-2.70928E-001	-2.45949E-001	-1.31588E-008	-8.09010E-008	6.77423E-008	-2.71000E-001	4.29206E-004	6	..........a	-327.68
	54	5.5	-2.17023E-001	-2.66852E-001	-2.41938E-001	-1.10385E-008	-7.76813E-008	6.66428E-008	-2.67000E-001	4.25373E-004	6	..........a	-327.68
	56	5.7	-2.12930E-001	-2.62909E-001	-2.37920E-001	-9.12924E-009	-7.43635E-008	6.52343E-008	-2.63000E-001	4.41206E-004	6	..........a	-327.68
	58	5.9	-2.08969E-001	-2.58909E-001	-2.33939E-001	-7.33402E-009	-7.14105E-008	6.40765E-008	-2.59000E-001	4.44206E-004	6	..........a	-327.68
	60	6.1	-2.04961E-001	-2.54927E-001	-2.29944E-001	-5.53445E-009	-6.82798E-008	6.27453E-008	-2.55000E-001	4.37706E-004	6	..........a	-327.68
	62	6.3	-2.01012E-001	-2.50919E-001	-2.25965E-001	-4.11127E-009	-6.57321E-008	6.16208E-008	-2.51000E-001	4.37873E-004	6	..........a	-327.68
	64	6.5	-1.96986E-001	-2.46909E-001	-2.21947E-001	-2.39939E-009	-6.31498E-008	6.07504E-008	-2.47000E-001	4.36373E-004	6	..........a	-327.68
	66	6.7	-1.92982E-001	-2.42877E-001	-2.17929E-001	-8.38523E-010	-6.07065E-008	5.98680E-008	-2.43000E-001	4.37206E-004	6	..........a	-327.68
	68	6.9	-1.88971E-001	-2.38908E-001	-2.13940E-001	8.25022E-010	-5.80455E-008	5.88705E-008	-2.39000E-001	4.31373E-004	6	..........a	-327.68
	70	7.1	-1.84983E-001	-2.34894E-001	-2.09938E-001	2.00451E-009	-5.58275E-008	5.78320E-008	-2.35000E-001	4.41373E-004	6	..........a	-327.68
	72	7.3	-1.80983E-001	-2.30898E-001	-2.05940E-001	3.38035E-009	-5.34656E-008	5.68459E-008	-2.31000E-001	4.34206E-004	6	..........a	-327.68
	74	7.5	-1.77008E-001	-2.26923E-001	-2.01966E-001	4.57216E-009	-5.12669E-008	5.58391E-008	-2.27000E-001	4.33206E-004	6	..........a	-327.68
	76	7.7	-1.73001E-001	-2.22936E-001	-1.97969E-001	5.84166E-009	-4.93817E-008	5.52234E-008	-2.23000E-001	4.31539E-004	6	..........a	-327.68
	78	7.9	-1.68997E-001	-2.18934E-001	-1.93965E-001	7.04615E-009	-4.74515E-008	5.44976E-008	-2.19000E-001	4.18873E-004	6	..........a	-327.68
	80	8.1	-1.64849E-001	-2.14918E-001	-1.89883E-001	8.25097E-009	-4.55722E-008	5.38232E-008	-2.15000E-001	4.32539E-004	6	..........a	-327.68
	82	8.3	-1.60974E-001	-2.10927E-001	-1.85951E-001	9.32144E-009	-4.37493E-008	5.30708E-008	-2.11000E-001	4.25039E-004	6	..........a	-327.68
	84	8.5	-1.56948E-001	-2.06943E-001	-1.81945E-001	1.02876E-008	-4.21374E-008	5.24250E-008	-2.07000E-001	4.17706E-004	6	..........a	-327.68
	86	8.7	-1.53027E-001	-2.02910E-001	-1.77969E-001	1.11687E-008	-4.04406E-008	5.16092E-008	-2.03000E-001	4.14039E-004	6	..........a	-327.68
	88	8.9	-1.48994E-001	-1.98967E-001	-1.73980E-001	1.23375E-008	-3.91491E-008	5.14866E-008	-1.99000E-001	4.18706E-004	6	..........a	-327.68
	90	9.1	-1.44990E-001	-1.94933E-001	-1.69961E-001	1.34430E-008	-3.77352E-008	5.11782E-008	-1.95000E-001	4.17706E-004	6	..........a	-327.68
	92	9.3	-1.40998E-001	-1.90986E-001	-1.65992E-001	1.42724E-008	-3.61213E-008	5.03937E-008	-1.91000E-001	4.42039E-004	6	..........a	-327.68
	94	9.5	-1.37004E-001	-1.86893E-001	-1.61948E-001	1.51678E-008	-3.48842E-008	5.00520E-008	-1.87000E-001	4.28039E-004	6	..........a	-327.68
	96	9.7	-1.32938E-001	-1.82939E-001	-1.57938E-001	1.59759E-008	-3.36127E-008	4.95886E-008	-1.83000E-001	4.14873E-004	6	..........a	-327.68
	98	9.9	-1.28979E-001	-1.78908E-001	-1.53943E-001	1.70498E-008	-3.27259E-008	4.97757E-008	-1.79000E-001	4.19206E-004	6	..........a	-327.68
	100	10.1	-1.24986E-001	-1.74975E-001	-1.49980E-001	1.78975E-008	-3.14778E-008	4.93753E-008	-1.75000E-001	4.28873E-004	6	..........a	-327.68

File: SWV_10Hz STD1 10  fgml 081020_#8.DTA
EXPLAIN
TAG	SQUARE_WAVE
TITLE	LABEL	Square Wave Voltammetry	Test Identifier
DATE	LABEL	8/10/2020	Date
TIME	LABEL	17:31:48	Time
NOTES	NOTES	1	Notes...
	 STD1, 10  fg/mL 08102
PSTAT	PSTAT	REF600-24079	Potentiostat
VINIT	QUANT	-3.50000E-001	Initial E (V)
VFINAL	QUANT	-1.50000E-001	Final E (V)
STEPSIZE	QUANT	2.00000E+000	Step Size (mV)
TIMERRES	QUANT	3.33340E-005	&Timer Resolution
FREQUENCY	QUANT	1.00000E+001	Frequency (Hz)
PULSESIZE	QUANT	2.50000E+001	Pulse Size E (mV)
PULSEON	QUANT	1.00000E-001	Pulse &Time (s)
NOISEREJECT	TOGGLE	F	Noise Rejection
AREA	QUANT	2.00000E-002	Sample Area (cm^2)
IMODE	SELECTOR	1	I/E Range Mode
IRANGE	QUANT	1.00000E-003	Max Current (mA)
EQDELAY	IQUANT	10	Equil. Time (s)
IRCOMP	SELECTOR	0	IRComp
PFCOR	QUANT	5.00000E+001	PF Corr. (ohm)
CYCLES	IQUANT	101	C&ycles (#)
ELECTRODETYPE	SELECTOR	0	Electrode Type
STRIPPING	TOGGLE	F	Used for Stripping
POLARITY	TOGGLE	F	Signal Polarity
LINEFREQ	IQUANT	60	Line Frequency (Hz)
INTPERIOD	QUANT	3.3334E-005	Integration Period (s)
SEQUENCER	TOGGLE	TRUE	Run as Sequence
PSTATMODEL	IQUANT	4	Pstat Model
PSTATSECTION	LABEL	REF600-24079	Pstat Section
PSTATSERIALNO	LABEL	24079	Pstat Serial Number
CTRLMODE	IQUANT	1	Control Mode
ELECTROMETER	IQUANT	0	RE=0 or CS=1
IESTAB	IQUANT	2	I/E Stability
CASPEED	IQUANT	6	Control Amp Speed
CONVENTION	IQUANT	1	Current Convention
ICHRANGE	IQUANT	2	Ich Range
ICHRANGEMODE	TOGGLE	F	Ich Auto Range
ICHOFFSETENABLE	TOGGLE	F	Ich Offset Enable
ICHOFFSET	QUANT	0	Ich Offset (V)
ICHFILTER	IQUANT	2	Ich Filter
VCHRANGE	IQUANT	2	Vch Range
VCHRANGEMODE	TOGGLE	F	Vch Auto Range
VCHOFFSETENABLE	TOGGLE	F	Vch Offset Enable
VCHOFFSET	QUANT	0	Vch Offset (V)
VCHFILTER	IQUANT	2	Vch Filter
ACHRANGE	IQUANT	2	Ach Range
ACHOFFSETENABLE	TOGGLE	F	Ach Offset Enable
ACHOFFSET	QUANT	0	Ach Offset (V)
ACHFILTER	IQUANT	1	Ach Filter
IERANGELOWERLIMIT	IQUANT	1	I/E Range Lower Limit
IERANGEMODE	TOGGLE	F	I/E AutoRange
IERANGE	IQUANT	6	I/E Range
POSFEEDENABLE	TOGGLE	F	Positive Feedback IR Comp
POSFEEDRESISTANCE	QUANT	0	Positive Feedback Resistance (ohm)
ACHSELECT	IQUANT	0	Ach Select
SENSECABLEID	IQUANT	13	Sense Cable ID
PWRCABLEID	IQUANT	13	Power Cable ID
DCCALDATE	LABEL	6/30/2020	DC Calibration Date
ACCALDATE	LABEL	6/30/2020	AC Calibration Date
THERMOSELECT	IQUANT	1	Thermo Select
FRAMEWORKVERSION	LABEL	7.8.2	Framework Version
INSTRUMENTVERSION	LABEL	4.40	Instrument Version
CURVE	TABLE	101
	Pt	T	Vfwd	Vrev	Vstep	Ifwd	Irev	Idif	Sig	Ach	IERange	Over	Temp
	#	s	V	V	V	A	A	A	V	V	#	bits	deg C
	0	0.1	-3.24977E-001	-3.74938E-001	-3.49958E-001	-1.23955E-007	-2.34108E-007	1.10153E-007	-3.75000E-001	3.99039E-004	6	..........a	-327.68
	2	0.3	-3.20948E-001	-3.70826E-001	-3.45887E-001	-1.05694E-007	-2.20375E-007	1.14682E-007	-3.71000E-001	4.14039E-004	6	..........a	-327.68
	4	0.5	-3.17008E-001	-3.66905E-001	-3.41956E-001	-9.97138E-008	-2.11037E-007	1.11323E-007	-3.67000E-001	3.98039E-004	6	..........a	-327.68
	6	0.7	-3.12998E-001	-3.62864E-001	-3.37931E-001	-9.41821E-008	-2.02573E-007	1.08391E-007	-3.63000E-001	4.05039E-004	6	..........a	-327.68
	8	0.9	-3.08980E-001	-3.58921E-001	-3.33950E-001	-8.90787E-008	-1.94368E-007	1.05290E-007	-3.59000E-001	3.85539E-004	6	..........a	-327.68
	10	1.1	-3.05023E-001	-3.54897E-001	-3.29960E-001	-8.42965E-008	-1.86801E-007	1.02504E-007	-3.55000E-001	3.86206E-004	6	..........a	-327.68
	12	1.3	-3.00997E-001	-3.50921E-001	-3.25959E-001	-7.94745E-008	-1.79096E-007	9.96217E-008	-3.51000E-001	4.04706E-004	6	..........a	-327.68
	14	1.5	-2.96966E-001	-3.46936E-001	-3.21951E-001	-7.48079E-008	-1.72316E-007	9.75077E-008	-3.47000E-001	4.13706E-004	6	..........a	-327.68
	16	1.7	-2.92957E-001	-3.42887E-001	-3.17922E-001	-7.04090E-008	-1.65468E-007	9.50591E-008	-3.43000E-001	4.13206E-004	6	..........a	-327.68
	18	1.9	-2.88972E-001	-3.38882E-001	-3.13927E-001	-6.60625E-008	-1.58724E-007	9.26615E-008	-3.39000E-001	4.14873E-004	6	..........a	-327.68
	20	2.1	-2.84979E-001	-3.34903E-001	-3.09941E-001	-6.18783E-008	-1.52451E-007	9.05728E-008	-3.35000E-001	4.06373E-004	6	..........a	-327.68
	22	2.3	-2.81046E-001	-3.30890E-001	-3.05968E-001	-5.78388E-008	-1.46387E-007	8.85486E-008	-3.31000E-001	4.05539E-004	6	..........a	-327.68
	24	2.5	-2.76979E-001	-3.26939E-001	-3.01959E-001	-5.39013E-008	-1.40442E-007	8.65403E-008	-3.27000E-001	4.03373E-004	6	..........a	-327.68
	26	2.7	-2.72962E-001	-3.22921E-001	-2.97942E-001	-5.01571E-008	-1.35068E-007	8.49108E-008	-3.23000E-001	3.94039E-004	6	..........a	-327.68
	28	2.9	-2.68951E-001	-3.18875E-001	-2.93913E-001	-4.65597E-008	-1.29786E-007	8.32263E-008	-3.19000E-001	4.09539E-004	6	..........a	-327.68
	30	3.1	-2.65056E-001	-3.14933E-001	-2.89995E-001	-4.29559E-008	-1.24743E-007	8.17871E-008	-3.15000E-001	4.05706E-004	6	..........a	-327.68
	32	3.3	-2.60975E-001	-3.10906E-001	-2.85941E-001	-3.93508E-008	-1.19910E-007	8.05596E-008	-3.11000E-001	3.95539E-004	6	..........a	-327.68
	34	3.5	-2.57009E-001	-3.06890E-001	-2.81949E-001	-3.62627E-008	-1.15226E-007	7.89637E-008	-3.07000E-001	4.07039E-004	6	..........a	-327.68
	36	3.7	-2.53011E-001	-3.02929E-001	-2.77970E-001	-3.31506E-008	-1.10810E-007	7.76589E-008	-3.03000E-001	4.03373E-004	6	..........a	-327.68
	38	3.9	-2.48980E-001	-2.98927E-001	-2.73953E-001	-3.00509E-008	-1.06608E-007	7.65567E-008	-2.99000E-001	3.93206E-004	6	..........a	-327.68
	40	4.1	-2.44951E-001	-2.94930E-001	-2.69940E-001	-2.71432E-008	-1.02211E-007	7.50682E-008	-2.95000E-001	4.01206E-004	6	..........a	-327.68
	42	4.3	-2.41075E-001	-2.90853E-001	-2.65964E-001	-2.45332E-008	-9.86000E-008	7.40667E-008	-2.91000E-001	3.86706E-004	6	..........a	-327.68
	44	4.5	-2.36966E-001	-2.86903E-001	-2.61935E-001	-2.19222E-008	-9.49645E-008	7.30423E-008	-2.87000E-001	3.95206E-004	6	..........a	-327.68
	46	4.7	-2.33020E-001	-2.82874E-001	-2.57947E-001	-1.95586E-008	-9.12567E-008	7.16981E-008	-2.83000E-001	4.01873E-004	6	..........a	-327.68
	48	4.9	-2.28967E-001	-2.78926E-001	-2.53947E-001	-1.73593E-008	-8.77262E-008	7.03670E-008	-2.79000E-001	3.98373E-004	6	..........a	-327.68
	50	5.1	-2.24990E-001	-2.74915E-001	-2.49953E-001	-1.51643E-008	-8.41311E-008	6.89668E-008	-2.75000E-001	4.01873E-004	6	..........a	-327.68
	52	5.3	-2.20971E-001	-2.70923E-001	-2.45947E-001	-1.29821E-008	-8.08797E-008	6.78976E-008	-2.71000E-001	3.93373E-004	6	..........a	-327.68
	54	5.5	-2.17086E-001	-2.66825E-001	-2.41955E-001	-1.09951E-008	-7.76116E-008	6.66165E-008	-2.67000E-001	4.00706E-004	6	..........a	-327.68
	56	5.7	-2.12933E-001	-2.62896E-001	-2.37915E-001	-9.20225E-009	-7.46813E-008	6.54790E-008	-2.63000E-001	4.17373E-004	6	..........a	-327.68
	58	5.9	-2.08994E-001	-2.58885E-001	-2.33940E-001	-7.54838E-009	-7.16349E-008	6.40865E-008	-2.59000E-001	4.14706E-004	6	..........a	-327.68
	60	6.1	-2.04984E-001	-2.54907E-001	-2.29946E-001	-5.84883E-009	-6.87865E-008	6.29377E-008	-2.55000E-001	4.12539E-004	6	..........a	-327.68
	62	6.3	-2.00997E-001	-2.50903E-001	-2.25950E-001	-4.04026E-009	-6.57638E-008	6.17235E-008	-2.51000E-001	4.00539E-004	6	..........a	-327.68
	64	6.5	-1.96978E-001	-2.46899E-001	-2.21938E-001	-2.35805E-009	-6.31685E-008	6.08104E-008	-2.47000E-001	4.07539E-004	6	..........a	-327.68
	66	6.7	-1.92972E-001	-2.42848E-001	-2.17910E-001	-7.12174E-010	-6.06638E-008	5.99516E-008	-2.43000E-001	4.10039E-004	6	..........a	-327.68
	68	6.9	-1.88984E-001	-2.38892E-001	-2.13938E-001	8.84362E-010	-5.82522E-008	5.91365E-008	-2.39000E-001	4.06039E-004	6	..........a	-327.68
	70	7.1	-1.85014E-001	-2.34875E-001	-2.09944E-001	2.10085E-009	-5.57925E-008	5.78934E-008	-2.35000E-001	4.04539E-004	6	..........a	-327.68
	72	7.3	-1.81009E-001	-2.30892E-001	-2.05951E-001	3.29567E-009	-5.35016E-008	5.67972E-008	-2.31000E-001	3.99706E-004	6	..........a	-327.68
	74	7.5	-1.77026E-001	-2.26896E-001	-2.01961E-001	4.42548E-009	-5.12323E-008	5.56578E-008	-2.27000E-001	3.83539E-004	6	..........a	-327.68
	76	7.7	-1.73004E-001	-2.22914E-001	-1.97959E-001	5.76732E-009	-4.93480E-008	5.51153E-008	-2.23000E-001	3.83539E-004	6	..........a	-327.68
	78	7.9	-1.68987E-001	-2.18930E-001	-1.93958E-001	7.16616E-009	-4.74635E-008	5.46296E-008	-2.19000E-001	3.92373E-004	6	..........a	-327.68
	80	8.1	-1.64841E-001	-2.14872E-001	-1.89857E-001	8.16929E-009	-4.56519E-008	5.38212E-008	-2.15000E-001	3.83039E-004	6	..........a	-327.68
	82	8.3	-1.60994E-001	-2.10902E-001	-1.85948E-001	9.34310E-009	-4.39373E-008	5.32804E-008	-2.11000E-001	3.84206E-004	6	..........a	-327.68
	84	8.5	-1.56996E-001	-2.06917E-001	-1.81957E-001	1.04006E-008	-4.21858E-008	5.25864E-008	-2.07000E-001	3.89206E-004	6	..........a	-327.68
	86	8.7	-1.53050E-001	-2.02882E-001	-1.77966E-001	1.15681E-008	-4.05322E-008	5.21003E-008	-2.03000E-001	3.78206E-004	6	..........a	-327.68
	88	8.9	-1.49007E-001	-1.98948E-001	-1.73977E-001	1.26142E-008	-3.87900E-008	5.14042E-008	-1.99000E-001	3.76206E-004	6	..........a	-327.68
	90	9.1	-1.44981E-001	-1.94914E-001	-1.69947E-001	1.35680E-008	-3.75052E-008	5.10732E-008	-1.95000E-001	3.72373E-004	6	..........a	-327.68
	92	9.3	-1.40978E-001	-1.90946E-001	-1.65962E-001	1.42781E-008	-3.60393E-008	5.03174E-008	-1.91000E-001	3.71373E-004	6	..........a	-327.68
	94	9.5	-1.37064E-001	-1.86857E-001	-1.61960E-001	1.54616E-008	-3.48859E-008	5.03474E-008	-1.87000E-001	3.66539E-004	6	..........a	-327.68
	96	9.7	-1.32949E-001	-1.82928E-001	-1.57938E-001	1.64133E-008	-3.36874E-008	5.01007E-008	-1.83000E-001	3.79873E-004	6	..........a	-327.68
	98	9.9	-1.28983E-001	-1.78881E-001	-1.53932E-001	1.71908E-008	-3.24502E-008	4.96410E-008	-1.79000E-001	3.71373E-004	6	..........a	-327.68
	100	10.1	-1.25006E-001	-1.74943E-001	-1.49975E-001	1.81182E-008	-3.12791E-008	4.93973E-008	-1.75000E-001	3.78873E-004	6	..........a	-327.68