Folder: EchemAnalysis_AMA/Sample Data/Concentration Curve Data/C-COM1 (part 9)

File: SWV_10Hz STD1 100  fgml 081020_#9.DTA
EXPLAIN
TAG	SQUARE_WAVE
TITLE	LABEL	Square Wave Voltammetry	Test Identifier
DATE	LABEL	8/10/2020	Date
TIME	LABEL	20:05:35	Time
NOTES	NOTES	1	Notes...
	 STD1 100  fg/mL 08102
PSTAT	PSTAT	REF600-24079	Potentiostat
VINIT	QUANT	-3.50000E-001	Initial E (V)
VFINAL	QUANT	-1.50000E-001	Final E (V)
STEPSIZE	QUANT	2.00000E+000	Step Size (mV)
TIMERRES	QUANT	3.33340E-005	&Timer Resolution
FREQUENCY	QUANT	1.00000E+001	Frequency (Hz)
PULSESIZE	QUANT	2.50000E+001	Pulse Size E (mV)
PULSEON	QUANT	1.00000E-001	Pulse &Time (s)
NOISEREJECT	TOGGLE	F	Noise Rejection
AREA	QUANT	2.00000E-002	Sample Area (cm^2)
IMODE	SELECTOR	1	I/E Range Mode
IRANGE	QUANT	1.00000E-003	Max Current (mA)
EQDELAY	IQUANT	10	Equil. Time (s)
IRCOMP	SELECTOR	0	IRComp
PFCOR	QUANT	5.00000E+001	PF Corr. (ohm)
CYCLES	IQUANT	101	C&ycles (#)
ELECTRODETYPE	SELECTOR	0	Electrode Type
STRIPPING	TOGGLE	F	Used for Stripping
POLARITY	TOGGLE	F	Signal Polarity
LINEFREQ	IQUANT	60	Line Frequency (Hz)
INTPERIOD	QUANT	3.3334E-005	Integration Period (s)
SEQUENCER	TOGGLE	TRUE	Run as Sequence
PSTATMODEL	IQUANT	4	Pstat Model
PSTATSECTION	LABEL	REF600-24079	Pstat Section
PSTATSERIALNO	LABEL	24079	Pstat Serial Number
CTRLMODE	IQUANT	1	Control Mode
ELECTROMETER	IQUANT	0	RE=0 or CS=1
IESTAB	IQUANT	2	I/E Stability
CASPEED	IQUANT	6	Control Amp Speed
CONVENTION	IQUANT	1	Current Convention
ICHRANGE	IQUANT	2	Ich Range
ICHRANGEMODE	TOGGLE	F	Ich Auto Range
ICHOFFSETENABLE	TOGGLE	F	Ich Offset Enable
ICHOFFSET	QUANT	0	Ich Offset (V)
ICHFILTER	IQUANT	2	Ich Filter
VCHRANGE	IQUANT	2	Vch Range
VCHRANGEMODE	TOGGLE	F	Vch Auto Range
VCHOFFSETENABLE	TOGGLE	F	Vch Offset Enable
VCHOFFSET	QUANT	0	Vch Offset (V)
VCHFILTER	IQUANT	2	Vch Filter
ACHRANGE	IQUANT	2	Ach Range
ACHOFFSETENABLE	TOGGLE	F	Ach Offset Enable
ACHOFFSET	QUANT	0	Ach Offset (V)
ACHFILTER	IQUANT	1	Ach Filter
IERANGELOWERLIMIT	IQUANT	1	I/E Range Lower Limit
IERANGEMODE	TOGGLE	F	I/E AutoRange
IERANGE	IQUANT	6	I/E Range
POSFEEDENABLE	TOGGLE	F	Positive Feedback IR Comp
POSFEEDRESISTANCE	QUANT	0	Positive Feedback Resistance (ohm)
ACHSELECT	IQUANT	0	Ach Select
SENSECABLEID	IQUANT	13	Sense Cable ID
PWRCABLEID	IQUANT	13	Power Cable ID
DCCALDATE	LABEL	6/30/2020	DC Calibration Date
ACCALDATE	LABEL	6/30/2020	AC Calibration Date
THERMOSELECT	IQUANT	1	Thermo Select
FRAMEWORKVERSION	LABEL	7.8.2	Framework Version
INSTRUMENTVERSION	LABEL	4.40	Instrument Version
CURVE	TABLE	101
	Pt	T	Vfwd	Vrev	Vstep	Ifwd	Irev	Idif	Sig	Ach	IERange	Over	Temp
	#	s	V	V	V	A	A	A	V	V	#	bits	deg C
	0	0.1	-3.25012E-001	-3.74950E-001	-3.49981E-001	-1.65085E-007	-3.23383E-007	1.58298E-007	-3.75000E-001	4.05206E-004	6	..........a	-327.68
	2	0.3	-3.21005E-001	-3.70869E-001	-3.45937E-001	-1.44012E-007	-3.03938E-007	1.59925E-007	-3.71000E-001	3.76706E-004	6	..........a	-327.68
	4	0.5	-3.17040E-001	-3.66993E-001	-3.42016E-001	-1.35251E-007	-2.89436E-007	1.54185E-007	-3.67000E-001	3.69706E-004	6	..........a	-327.68
	6	0.7	-3.13052E-001	-3.62885E-001	-3.37969E-001	-1.27034E-007	-2.76376E-007	1.49343E-007	-3.63000E-001	3.93706E-004	6	..........a	-327.68
	8	0.9	-3.09014E-001	-3.58938E-001	-3.33976E-001	-1.19763E-007	-2.64071E-007	1.44309E-007	-3.59000E-001	4.01873E-004	6	..........a	-327.68
	10	1.1	-3.05072E-001	-3.54935E-001	-3.30003E-001	-1.12641E-007	-2.52477E-007	1.39836E-007	-3.55000E-001	3.90706E-004	6	..........a	-327.68
	12	1.3	-3.01043E-001	-3.50950E-001	-3.25997E-001	-1.05785E-007	-2.41020E-007	1.35235E-007	-3.51000E-001	3.89206E-004	6	..........a	-327.68
	14	1.5	-2.97018E-001	-3.46959E-001	-3.21989E-001	-9.93904E-008	-2.30272E-007	1.30882E-007	-3.47000E-001	3.87039E-004	6	..........a	-327.68
	16	1.7	-2.92893E-001	-3.42972E-001	-3.17932E-001	-9.32179E-008	-2.19805E-007	1.26587E-007	-3.43000E-001	3.87373E-004	6	..........a	-327.68
	18	1.9	-2.89071E-001	-3.38912E-001	-3.13991E-001	-8.71655E-008	-2.09913E-007	1.22747E-007	-3.39000E-001	3.84539E-004	6	..........a	-327.68
	20	2.1	-2.85041E-001	-3.34968E-001	-3.10004E-001	-8.15165E-008	-2.00732E-007	1.19215E-007	-3.35000E-001	3.90039E-004	6	..........a	-327.68
	22	2.3	-2.81092E-001	-3.30913E-001	-3.06003E-001	-7.55924E-008	-1.91559E-007	1.15966E-007	-3.31000E-001	3.85706E-004	6	..........a	-327.68
	24	2.5	-2.77037E-001	-3.26956E-001	-3.01996E-001	-7.04534E-008	-1.82794E-007	1.12341E-007	-3.27000E-001	3.96873E-004	6	..........a	-327.68
	26	2.7	-2.72987E-001	-3.22968E-001	-2.97977E-001	-6.51674E-008	-1.74423E-007	1.09255E-007	-3.23000E-001	3.98039E-004	6	..........a	-327.68
	28	2.9	-2.68981E-001	-3.18896E-001	-2.93938E-001	-6.03834E-008	-1.66311E-007	1.05928E-007	-3.19000E-001	4.05539E-004	6	..........a	-327.68
	30	3.1	-2.65108E-001	-3.14944E-001	-2.90026E-001	-5.57248E-008	-1.58789E-007	1.03064E-007	-3.15000E-001	4.01206E-004	6	..........a	-327.68
	32	3.3	-2.61063E-001	-3.10940E-001	-2.86001E-001	-5.10192E-008	-1.51483E-007	1.00464E-007	-3.11000E-001	4.00039E-004	6	..........a	-327.68
	34	3.5	-2.57050E-001	-3.06923E-001	-2.81986E-001	-4.69827E-008	-1.44525E-007	9.75424E-008	-3.07000E-001	3.87539E-004	6	..........a	-327.68
	36	3.7	-2.53066E-001	-3.02991E-001	-2.78028E-001	-4.27365E-008	-1.37818E-007	9.50811E-008	-3.03000E-001	3.76373E-004	6	..........a	-327.68
	38	3.9	-2.49028E-001	-2.98946E-001	-2.73987E-001	-3.87267E-008	-1.31544E-007	9.28171E-008	-2.99000E-001	3.78373E-004	6	..........a	-327.68
	40	4.1	-2.45012E-001	-2.94954E-001	-2.69983E-001	-3.49552E-008	-1.25480E-007	9.05245E-008	-2.95000E-001	3.89873E-004	6	..........a	-327.68
	42	4.3	-2.41114E-001	-2.90883E-001	-2.65998E-001	-3.12164E-008	-1.19478E-007	8.82619E-008	-2.91000E-001	3.84373E-004	6	..........a	-327.68
	44	4.5	-2.37010E-001	-2.86953E-001	-2.61982E-001	-2.79683E-008	-1.13854E-007	8.58853E-008	-2.87000E-001	3.96373E-004	6	..........a	-327.68
	46	4.7	-2.33063E-001	-2.82917E-001	-2.57990E-001	-2.47539E-008	-1.08665E-007	8.39110E-008	-2.83000E-001	4.02206E-004	6	..........a	-327.68
	48	4.9	-2.29075E-001	-2.78969E-001	-2.54022E-001	-2.16425E-008	-1.03248E-007	8.16054E-008	-2.79000E-001	3.92039E-004	6	..........a	-327.68
	50	5.1	-2.25043E-001	-2.74957E-001	-2.50000E-001	-1.89045E-008	-9.88360E-008	7.99315E-008	-2.75000E-001	3.98373E-004	6	..........a	-327.68
	52	5.3	-2.20994E-001	-2.70960E-001	-2.45977E-001	-1.63035E-008	-9.41537E-008	7.78502E-008	-2.71000E-001	3.87873E-004	6	..........a	-327.68
	54	5.5	-2.17094E-001	-2.66846E-001	-2.41970E-001	-1.36885E-008	-8.97882E-008	7.60997E-008	-2.67000E-001	3.85206E-004	6	..........a	-327.68
	56	5.7	-2.13011E-001	-2.62959E-001	-2.37985E-001	-1.10885E-008	-8.55133E-008	7.44248E-008	-2.63000E-001	3.83373E-004	6	..........a	-327.68
	58	5.9	-2.09045E-001	-2.58898E-001	-2.33971E-001	-8.77820E-009	-8.15951E-008	7.28169E-008	-2.59000E-001	3.92039E-004	6	..........a	-327.68
	60	6.1	-2.05044E-001	-2.54949E-001	-2.29997E-001	-6.78528E-009	-7.76953E-008	7.09100E-008	-2.55000E-001	3.94539E-004	6	..........a	-327.68
	62	6.3	-2.01049E-001	-2.50932E-001	-2.25990E-001	-4.63134E-009	-7.40328E-008	6.94015E-008	-2.51000E-001	4.02039E-004	6	..........a	-327.68
	64	6.5	-1.97021E-001	-2.46926E-001	-2.21974E-001	-2.43006E-009	-7.04427E-008	6.80127E-008	-2.47000E-001	4.01373E-004	6	..........a	-327.68
	66	6.7	-1.93013E-001	-2.42878E-001	-2.17945E-001	-6.75503E-010	-6.70586E-008	6.63831E-008	-2.43000E-001	3.94706E-004	6	..........a	-327.68
	68	6.9	-1.89060E-001	-2.38925E-001	-2.13993E-001	1.14873E-009	-6.41082E-008	6.52570E-008	-2.39000E-001	4.02873E-004	6	..........a	-327.68
	70	7.1	-1.85076E-001	-2.34878E-001	-2.09977E-001	2.57491E-009	-6.09005E-008	6.34754E-008	-2.35000E-001	3.93039E-004	6	..........a	-327.68
	72	7.3	-1.81071E-001	-2.30920E-001	-2.05996E-001	4.13978E-009	-5.79475E-008	6.20872E-008	-2.31000E-001	3.94539E-004	6	..........a	-327.68
	74	7.5	-1.77072E-001	-2.26936E-001	-2.02004E-001	5.72931E-009	-5.55998E-008	6.13291E-008	-2.27000E-001	3.99539E-004	6	..........a	-327.68
	76	7.7	-1.73051E-001	-2.22941E-001	-1.97996E-001	7.34285E-009	-5.28455E-008	6.01883E-008	-2.23000E-001	3.95539E-004	6	..........a	-327.68
	78	7.9	-1.69029E-001	-2.18965E-001	-1.93997E-001	8.58067E-009	-5.05212E-008	5.91019E-008	-2.19000E-001	3.76373E-004	6	..........a	-327.68
	80	8.1	-1.64856E-001	-2.14920E-001	-1.89888E-001	9.80483E-009	-4.81415E-008	5.79464E-008	-2.15000E-001	3.79706E-004	6	..........a	-327.68
	82	8.3	-1.61058E-001	-2.10939E-001	-1.85998E-001	1.11240E-008	-4.60466E-008	5.71706E-008	-2.11000E-001	3.75706E-004	6	..........a	-327.68
	84	8.5	-1.57046E-001	-2.06937E-001	-1.81991E-001	1.25222E-008	-4.40784E-008	5.66005E-008	-2.07000E-001	3.79539E-004	6	..........a	-327.68
	86	8.7	-1.53096E-001	-2.02931E-001	-1.78013E-001	1.36523E-008	-4.21028E-008	5.57551E-008	-2.03000E-001	3.74373E-004	6	..........a	-327.68
	88	8.9	-1.49067E-001	-1.98968E-001	-1.74018E-001	1.45448E-008	-4.01385E-008	5.46833E-008	-1.99000E-001	3.74039E-004	6	..........a	-327.68
	90	9.1	-1.45040E-001	-1.94950E-001	-1.69995E-001	1.57313E-008	-3.85247E-008	5.42559E-008	-1.95000E-001	3.68206E-004	6	..........a	-327.68
	92	9.3	-1.41026E-001	-1.90972E-001	-1.65999E-001	1.68631E-008	-3.71551E-008	5.40182E-008	-1.91000E-001	3.64206E-004	6	..........a	-327.68
	94	9.5	-1.37092E-001	-1.86878E-001	-1.61985E-001	1.77502E-008	-3.54296E-008	5.31798E-008	-1.87000E-001	3.72706E-004	6	..........a	-327.68
	96	9.7	-1.33039E-001	-1.82972E-001	-1.58005E-001	1.87633E-008	-3.40287E-008	5.27920E-008	-1.83000E-001	3.58873E-004	6	..........a	-327.68
	98	9.9	-1.29072E-001	-1.78919E-001	-1.53995E-001	1.96061E-008	-3.27776E-008	5.23837E-008	-1.79000E-001	3.74373E-004	6	..........a	-327.68
	100	10.1	-1.25071E-001	-1.74996E-001	-1.50034E-001	2.04522E-008	-3.15544E-008	5.20066E-008	-1.75000E-001	3.71206E-004	6	..........a	-327.68

File: SWV_10Hz STD1 100  fgml 081020_#10.DTA
EXPLAIN
TAG	SQUARE_WAVE
TITLE	LABEL	Square Wave Voltammetry	Test Identifier
DATE	LABEL	8/10/2020	Date
TIME	LABEL	20:05:55	Time
NOTES	NOTES	1	Notes...
	 STD1 100  fg/mL 08102
PSTAT	PSTAT	REF600-24079	Potentiostat
VINIT	QUANT	-3.50000E-001	Initial E (V)
VFINAL	QUANT	-1.50000E-001	Final E (V)
STEPSIZE	QUANT	2.00000E+000	Step Size (mV)
TIMERRES	QUANT	3.33340E-005	&Timer Resolution
FREQUENCY	QUANT	1.00000E+001	Frequency (Hz)
PULSESIZE	QUANT	2.50000E+001	Pulse Size E (mV)
PULSEON	QUANT	1.00000E-001	Pulse &Time (s)
NOISEREJECT	TOGGLE	F	Noise Rejection
AREA	QUANT	2.00000E-002	Sample Area (cm^2)
IMODE	SELECTOR	1	I/E Range Mode
IRANGE	QUANT	1.00000E-003	Max Current (mA)
EQDELAY	IQUANT	10	Equil. Time (s)
IRCOMP	SELECTOR	0	IRComp
PFCOR	QUANT	5.00000E+001	PF Corr. (ohm)
CYCLES	IQUANT	101	C&ycles (#)
ELECTRODETYPE	SELECTOR	0	Electrode Type
STRIPPING	TOGGLE	F	Used for Stripping
POLARITY	TOGGLE	F	Signal Polarity
LINEFREQ	IQUANT	60	Line Frequency (Hz)
INTPERIOD	QUANT	3.3334E-005	Integration Period (s)
SEQUENCER	TOGGLE	TRUE	Run as Sequence
PSTATMODEL	IQUANT	4	Pstat Model
PSTATSECTION	LABEL	REF600-24079	Pstat Section
PSTATSERIALNO	LABEL	24079	Pstat Serial Number
CTRLMODE	IQUANT	1	Control Mode
ELECTROMETER	IQUANT	0	RE=0 or CS=1
IESTAB	IQUANT	2	I/E Stability
CASPEED	IQUANT	6	Control Amp Speed
CONVENTION	IQUANT	1	Current Convention
ICHRANGE	IQUANT	2	Ich Range
ICHRANGEMODE	TOGGLE	F	Ich Auto Range
ICHOFFSETENABLE	TOGGLE	F	Ich Offset Enable
ICHOFFSET	QUANT	0	Ich Offset (V)
ICHFILTER	IQUANT	2	Ich Filter
VCHRANGE	IQUANT	2	Vch Range
VCHRANGEMODE	TOGGLE	F	Vch Auto Range
VCHOFFSETENABLE	TOGGLE	F	Vch Offset Enable
VCHOFFSET	QUANT	0	Vch Offset (V)
VCHFILTER	IQUANT	2	Vch Filter
ACHRANGE	IQUANT	2	Ach Range
ACHOFFSETENABLE	TOGGLE	F	Ach Offset Enable
ACHOFFSET	QUANT	0	Ach Offset (V)
ACHFILTER	IQUANT	1	Ach Filter
IERANGELOWERLIMIT	IQUANT	1	I/E Range Lower Limit
IERANGEMODE	TOGGLE	F	I/E AutoRange
IERANGE	IQUANT	6	I/E Range
POSFEEDENABLE	TOGGLE	F	Positive Feedback IR Comp
POSFEEDRESISTANCE	QUANT	0	Positive Feedback Resistance (ohm)
ACHSELECT	IQUANT	0	Ach Select
SENSECABLEID	IQUANT	13	Sense Cable ID
PWRCABLEID	IQUANT	13	Power Cable ID
DCCALDATE	LABEL	6/30/2020	DC Calibration Date
ACCALDATE	LABEL	6/30/2020	AC Calibration Date
THERMOSELECT	IQUANT	1	Thermo Select
FRAMEWORKVERSION	LABEL	7.8.2	Framework Version
INSTRUMENTVERSION	LABEL	4.40	Instrument Version
CURVE	TABLE	101
	Pt	T	Vfwd	Vrev	Vstep	Ifwd	Irev	Idif	Sig	Ach	IERange	Over	Temp
	#	s	V	V	V	A	A	A	V	V	#	bits	deg C
	0	0.1	-3.24977E-001	-3.74930E-001	-3.49953E-001	-1.66490E-007	-3.24977E-007	1.58487E-007	-3.75000E-001	4.24539E-004	6	..........a	-327.68
	2	0.3	-3.20976E-001	-3.70828E-001	-3.45902E-001	-1.45347E-007	-3.05502E-007	1.60155E-007	-3.71000E-001	4.13539E-004	6	..........a	-327.68
	4	0.5	-3.16917E-001	-3.66961E-001	-3.41939E-001	-1.36219E-007	-2.91218E-007	1.54999E-007	-3.67000E-001	4.10873E-004	6	..........a	-327.68
	6	0.7	-3.13018E-001	-3.62850E-001	-3.37934E-001	-1.28206E-007	-2.78159E-007	1.49953E-007	-3.63000E-001	4.29373E-004	6	..........a	-327.68
	8	0.9	-3.08999E-001	-3.58895E-001	-3.33947E-001	-1.20753E-007	-2.65527E-007	1.44774E-007	-3.59000E-001	4.32206E-004	6	..........a	-327.68
	10	1.1	-3.05042E-001	-3.54903E-001	-3.29973E-001	-1.13748E-007	-2.53830E-007	1.40083E-007	-3.55000E-001	4.24206E-004	6	..........a	-327.68
	12	1.3	-3.01006E-001	-3.50935E-001	-3.25970E-001	-1.07043E-007	-2.42660E-007	1.35617E-007	-3.51000E-001	4.22539E-004	6	..........a	-327.68
	14	1.5	-2.97005E-001	-3.46927E-001	-3.21966E-001	-1.00477E-007	-2.31744E-007	1.31267E-007	-3.47000E-001	4.21039E-004	6	..........a	-327.68
	16	1.7	-2.92842E-001	-3.42883E-001	-3.17862E-001	-9.41837E-008	-2.21345E-007	1.27162E-007	-3.43000E-001	4.29539E-004	6	..........a	-327.68
	18	1.9	-2.89055E-001	-3.38866E-001	-3.13961E-001	-8.82613E-008	-2.11413E-007	1.23151E-007	-3.39000E-001	4.16706E-004	6	..........a	-327.68
	20	2.1	-2.84993E-001	-3.34923E-001	-3.09958E-001	-8.25733E-008	-2.02032E-007	1.19459E-007	-3.35000E-001	4.16706E-004	6	..........a	-327.68
	22	2.3	-2.81077E-001	-3.30880E-001	-3.05979E-001	-7.68749E-008	-1.92995E-007	1.16120E-007	-3.31000E-001	4.14706E-004	6	..........a	-327.68
	24	2.5	-2.76999E-001	-3.26932E-001	-3.01965E-001	-7.14702E-008	-1.84225E-007	1.12755E-007	-3.27000E-001	4.22706E-004	6	..........a	-327.68
	26	2.7	-2.72962E-001	-3.22919E-001	-2.97941E-001	-6.64525E-008	-1.75958E-007	1.09505E-007	-3.23000E-001	4.28706E-004	6	..........a	-327.68
	28	2.9	-2.68934E-001	-3.18882E-001	-2.93908E-001	-6.14529E-008	-1.68116E-007	1.06663E-007	-3.19000E-001	4.29206E-004	6	..........a	-327.68
	30	3.1	-2.65081E-001	-3.14889E-001	-2.89985E-001	-5.66793E-008	-1.60358E-007	1.03679E-007	-3.15000E-001	4.30706E-004	6	..........a	-327.68
	32	3.3	-2.60976E-001	-3.10896E-001	-2.85936E-001	-5.22141E-008	-1.53045E-007	1.00831E-007	-3.11000E-001	4.23539E-004	6	..........a	-327.68
	34	3.5	-2.57008E-001	-3.06886E-001	-2.81947E-001	-4.78812E-008	-1.46181E-007	9.82998E-008	-3.07000E-001	4.23373E-004	6	..........a	-327.68
	36	3.7	-2.53015E-001	-3.02953E-001	-2.77984E-001	-4.40634E-008	-1.39355E-007	9.52918E-008	-3.03000E-001	4.12373E-004	6	..........a	-327.68
	38	3.9	-2.48993E-001	-2.98930E-001	-2.73961E-001	-3.98398E-008	-1.32900E-007	9.30602E-008	-2.99000E-001	4.12539E-004	6	..........a	-327.68
	40	4.1	-2.44972E-001	-2.94926E-001	-2.69949E-001	-3.61817E-008	-1.26778E-007	9.05965E-008	-2.95000E-001	4.11373E-004	6	..........a	-327.68
	42	4.3	-2.41091E-001	-2.90837E-001	-2.65964E-001	-3.23802E-008	-1.20954E-007	8.85739E-008	-2.91000E-001	4.13539E-004	6	..........a	-327.68
	44	4.5	-2.36976E-001	-2.86911E-001	-2.61944E-001	-2.88891E-008	-1.15379E-007	8.64897E-008	-2.87000E-001	4.18706E-004	6	..........a	-327.68
	46	4.7	-2.33042E-001	-2.82878E-001	-2.57960E-001	-2.58580E-008	-1.10328E-007	8.44701E-008	-2.83000E-001	4.24873E-004	6	..........a	-327.68
	48	4.9	-2.28993E-001	-2.78921E-001	-2.53957E-001	-2.28150E-008	-1.05026E-007	8.22111E-008	-2.79000E-001	4.24539E-004	6	..........a	-327.68
	50	5.1	-2.25001E-001	-2.74922E-001	-2.49961E-001	-2.00123E-008	-1.00518E-007	8.05056E-008	-2.75000E-001	4.24373E-004	6	..........a	-327.68
	52	5.3	-2.20975E-001	-2.70938E-001	-2.45956E-001	-1.72269E-008	-9.56403E-008	7.84133E-008	-2.71000E-001	4.13706E-004	6	..........a	-327.68
	54	5.5	-2.17117E-001	-2.66826E-001	-2.41972E-001	-1.48916E-008	-9.11560E-008	7.62644E-008	-2.67000E-001	4.16539E-004	6	..........a	-327.68
	56	5.7	-2.12985E-001	-2.62956E-001	-2.37970E-001	-1.22326E-008	-8.68055E-008	7.45728E-008	-2.63000E-001	4.14873E-004	6	..........a	-327.68
	58	5.9	-2.09029E-001	-2.58870E-001	-2.33949E-001	-1.00417E-008	-8.28149E-008	7.27733E-008	-2.59000E-001	4.18539E-004	6	..........a	-327.68
	60	6.1	-2.04993E-001	-2.54930E-001	-2.29961E-001	-7.77174E-009	-7.90078E-008	7.12361E-008	-2.55000E-001	4.23039E-004	6	..........a	-327.68
	62	6.3	-2.01039E-001	-2.50919E-001	-2.25979E-001	-5.62547E-009	-7.52560E-008	6.96305E-008	-2.51000E-001	4.29873E-004	6	..........a	-327.68
	64	6.5	-1.96990E-001	-2.46917E-001	-2.21954E-001	-3.54420E-009	-7.15525E-008	6.80083E-008	-2.47000E-001	4.29873E-004	6	..........a	-327.68
	66	6.7	-1.92989E-001	-2.42843E-001	-2.17916E-001	-1.72164E-009	-6.82971E-008	6.65755E-008	-2.43000E-001	4.29039E-004	6	..........a	-327.68
	68	6.9	-1.88935E-001	-2.38891E-001	-2.13913E-001	2.36947E-010	-6.49294E-008	6.51663E-008	-2.39000E-001	4.12706E-004	6	..........a	-327.68
	70	7.1	-1.85049E-001	-2.34852E-001	-2.09950E-001	1.88216E-009	-6.19623E-008	6.38445E-008	-2.35000E-001	4.24706E-004	6	..........a	-327.68
	72	7.3	-1.81009E-001	-2.30895E-001	-2.05952E-001	3.38235E-009	-5.90789E-008	6.24613E-008	-2.31000E-001	4.19539E-004	6	..........a	-327.68
	74	7.5	-1.77051E-001	-2.26901E-001	-2.01976E-001	4.86187E-009	-5.65663E-008	6.14282E-008	-2.27000E-001	4.11206E-004	6	..........a	-327.68
	76	7.7	-1.73031E-001	-2.22916E-001	-1.97973E-001	6.40440E-009	-5.38676E-008	6.02720E-008	-2.23000E-001	4.11873E-004	6	..........a	-327.68
	78	7.9	-1.69011E-001	-2.18942E-001	-1.93977E-001	7.74990E-009	-5.14213E-008	5.91712E-008	-2.19000E-001	4.18873E-004	6	..........a	-327.68
	80	8.1	-1.64763E-001	-2.14894E-001	-1.89829E-001	9.16675E-009	-4.91910E-008	5.83578E-008	-2.15000E-001	3.97539E-004	6	..........a	-327.68
	82	8.3	-1.61032E-001	-2.10902E-001	-1.85967E-001	1.05569E-008	-4.71254E-008	5.76823E-008	-2.11000E-001	4.09206E-004	6	..........a	-327.68
	84	8.5	-1.56991E-001	-2.06913E-001	-1.81952E-001	1.18398E-008	-4.51285E-008	5.69682E-008	-2.07000E-001	4.07206E-004	6	..........a	-327.68
	86	8.7	-1.53075E-001	-2.02897E-001	-1.77986E-001	1.30019E-008	-4.29302E-008	5.59321E-008	-2.03000E-001	3.90706E-004	6	..........a	-327.68
	88	8.9	-1.49032E-001	-1.98949E-001	-1.73990E-001	1.40880E-008	-4.12387E-008	5.53267E-008	-1.99000E-001	3.98039E-004	6	..........a	-327.68
	90	9.1	-1.45018E-001	-1.94927E-001	-1.69972E-001	1.51745E-008	-3.94481E-008	5.46226E-008	-1.95000E-001	4.03039E-004	6	..........a	-327.68
	92	9.3	-1.41005E-001	-1.90963E-001	-1.65984E-001	1.62106E-008	-3.78772E-008	5.40879E-008	-1.91000E-001	3.94706E-004	6	..........a	-327.68
	94	9.5	-1.37082E-001	-1.86860E-001	-1.61971E-001	1.72374E-008	-3.61487E-008	5.33861E-008	-1.87000E-001	3.95039E-004	6	..........a	-327.68
	96	9.7	-1.32994E-001	-1.82935E-001	-1.57965E-001	1.82102E-008	-3.48709E-008	5.30811E-008	-1.83000E-001	4.08706E-004	6	..........a	-327.68
	98	9.9	-1.29035E-001	-1.78880E-001	-1.53957E-001	1.89670E-008	-3.33903E-008	5.23573E-008	-1.79000E-001	4.00373E-004	6	..........a	-327.68
	100	10.1	-1.25049E-001	-1.74960E-001	-1.50004E-001	2.01698E-008	-3.21855E-008	5.23553E-008	-1.75000E-001	3.98039E-004	6	..........a	-327.68