Folder: EchemAnalysis_AMA/Sample Data/Concentration Curve Data/C-COM2 (part 8)

File: SWV_10Hz STD2 aptmch 081020_#2.DTA
EXPLAIN
TAG	SQUARE_WAVE
TITLE	LABEL	Square Wave Voltammetry	Test Identifier
DATE	LABEL	8/10/2020	Date
TIME	LABEL	13:00:37	Time
NOTES	NOTES	1	Notes...
	 STD2 aptmch 08102
PSTAT	PSTAT	REF600-24079	Potentiostat
VINIT	QUANT	-3.50000E-001	Initial E (V)
VFINAL	QUANT	-1.50000E-001	Final E (V)
STEPSIZE	QUANT	2.00000E+000	Step Size (mV)
TIMERRES	QUANT	3.33340E-005	&Timer Resolution
FREQUENCY	QUANT	1.00000E+001	Frequency (Hz)
PULSESIZE	QUANT	2.50000E+001	Pulse Size E (mV)
PULSEON	QUANT	1.00000E-001	Pulse &Time (s)
NOISEREJECT	TOGGLE	F	Noise Rejection
AREA	QUANT	2.00000E-002	Sample Area (cm^2)
IMODE	SELECTOR	1	I/E Range Mode
IRANGE	QUANT	1.00000E-003	Max Current (mA)
EQDELAY	IQUANT	10	Equil. Time (s)
IRCOMP	SELECTOR	0	IRComp
PFCOR	QUANT	5.00000E+001	PF Corr. (ohm)
CYCLES	IQUANT	101	C&ycles (#)
ELECTRODETYPE	SELECTOR	0	Electrode Type
STRIPPING	TOGGLE	F	Used for Stripping
POLARITY	TOGGLE	F	Signal Polarity
LINEFREQ	IQUANT	60	Line Frequency (Hz)
INTPERIOD	QUANT	3.3334E-005	Integration Period (s)
SEQUENCER	TOGGLE	TRUE	Run as Sequence
PSTATMODEL	IQUANT	4	Pstat Model
PSTATSECTION	LABEL	REF600-24079	Pstat Section
PSTATSERIALNO	LABEL	24079	Pstat Serial Number
CTRLMODE	IQUANT	1	Control Mode
ELECTROMETER	IQUANT	0	RE=0 or CS=1
IESTAB	IQUANT	2	I/E Stability
CASPEED	IQUANT	6	Control Amp Speed
CONVENTION	IQUANT	1	Current Convention
ICHRANGE	IQUANT	2	Ich Range
ICHRANGEMODE	TOGGLE	F	Ich Auto Range
ICHOFFSETENABLE	TOGGLE	F	Ich Offset Enable
ICHOFFSET	QUANT	0	Ich Offset (V)
ICHFILTER	IQUANT	2	Ich Filter
VCHRANGE	IQUANT	2	Vch Range
VCHRANGEMODE	TOGGLE	F	Vch Auto Range
VCHOFFSETENABLE	TOGGLE	F	Vch Offset Enable
VCHOFFSET	QUANT	0	Vch Offset (V)
VCHFILTER	IQUANT	2	Vch Filter
ACHRANGE	IQUANT	2	Ach Range
ACHOFFSETENABLE	TOGGLE	F	Ach Offset Enable
ACHOFFSET	QUANT	0	Ach Offset (V)
ACHFILTER	IQUANT	1	Ach Filter
IERANGELOWERLIMIT	IQUANT	1	I/E Range Lower Limit
IERANGEMODE	TOGGLE	F	I/E AutoRange
IERANGE	IQUANT	6	I/E Range
POSFEEDENABLE	TOGGLE	F	Positive Feedback IR Comp
POSFEEDRESISTANCE	QUANT	0	Positive Feedback Resistance (ohm)
ACHSELECT	IQUANT	0	Ach Select
SENSECABLEID	IQUANT	13	Sense Cable ID
PWRCABLEID	IQUANT	13	Power Cable ID
DCCALDATE	LABEL	6/30/2020	DC Calibration Date
ACCALDATE	LABEL	6/30/2020	AC Calibration Date
THERMOSELECT	IQUANT	1	Thermo Select
FRAMEWORKVERSION	LABEL	7.8.2	Framework Version
INSTRUMENTVERSION	LABEL	4.40	Instrument Version
CURVE	TABLE	101
	Pt	T	Vfwd	Vrev	Vstep	Ifwd	Irev	Idif	Sig	Ach	IERange	Over	Temp
	#	s	V	V	V	A	A	A	V	V	#	bits	deg C
	0	0.1	-3.24826E-001	-3.74866E-001	-3.49846E-001	-9.92301E-009	-4.00092E-008	3.00862E-008	-3.75000E-001	4.53873E-004	6	..........a	-327.68
	2	0.3	-3.20874E-001	-3.70779E-001	-3.45826E-001	4.78786E-009	-3.32060E-008	3.79938E-008	-3.71000E-001	4.25539E-004	6	..........a	-327.68
	4	0.5	-3.16754E-001	-3.66854E-001	-3.41804E-001	6.65443E-009	-3.09764E-008	3.76308E-008	-3.67000E-001	4.18206E-004	6	..........a	-327.68
	6	0.7	-3.12853E-001	-3.62792E-001	-3.37823E-001	7.85458E-009	-2.98439E-008	3.76985E-008	-3.63000E-001	4.27539E-004	6	..........a	-327.68
	8	0.9	-3.08771E-001	-3.58830E-001	-3.33801E-001	8.63602E-009	-2.87617E-008	3.73978E-008	-3.59000E-001	4.05706E-004	6	..........a	-327.68
	10	1.1	-3.04849E-001	-3.54818E-001	-3.29833E-001	9.38711E-009	-2.77003E-008	3.70874E-008	-3.55000E-001	4.20373E-004	6	..........a	-327.68
	12	1.3	-3.00850E-001	-3.50853E-001	-3.25852E-001	9.94618E-009	-2.69682E-008	3.69144E-008	-3.51000E-001	4.31539E-004	6	..........a	-327.68
	14	1.5	-2.96869E-001	-3.46841E-001	-3.21855E-001	1.05449E-008	-2.62731E-008	3.68180E-008	-3.47000E-001	4.15206E-004	6	..........a	-327.68
	16	1.7	-2.92715E-001	-3.42850E-001	-3.17782E-001	1.12860E-008	-2.58007E-008	3.70867E-008	-3.43000E-001	4.13706E-004	6	..........a	-327.68
	18	1.9	-2.88871E-001	-3.38791E-001	-3.13831E-001	1.15937E-008	-2.53513E-008	3.69450E-008	-3.39000E-001	4.37206E-004	6	..........a	-327.68
	20	2.1	-2.84775E-001	-3.34847E-001	-3.09811E-001	1.26269E-008	-2.49923E-008	3.76191E-008	-3.35000E-001	4.27706E-004	6	..........a	-327.68
	22	2.3	-2.80856E-001	-3.30807E-001	-3.05832E-001	1.33026E-008	-2.47106E-008	3.80132E-008	-3.31000E-001	4.31206E-004	6	..........a	-327.68
	24	2.5	-2.76809E-001	-3.26858E-001	-3.01834E-001	1.40347E-008	-2.44825E-008	3.85172E-008	-3.27000E-001	4.23873E-004	6	..........a	-327.68
	26	2.7	-2.72852E-001	-3.22839E-001	-2.97845E-001	1.47938E-008	-2.43699E-008	3.91636E-008	-3.23000E-001	4.26206E-004	6	..........a	-327.68
	28	2.9	-2.68856E-001	-3.18853E-001	-2.93855E-001	1.54142E-008	-2.41678E-008	3.95820E-008	-3.19000E-001	4.31373E-004	6	..........a	-327.68
	30	3.1	-2.64837E-001	-3.14830E-001	-2.89834E-001	1.60753E-008	-2.42618E-008	4.03371E-008	-3.15000E-001	4.42373E-004	6	..........a	-327.68
	32	3.3	-2.60758E-001	-3.10839E-001	-2.85798E-001	1.66010E-008	-2.42022E-008	4.08032E-008	-3.11000E-001	4.13039E-004	6	..........a	-327.68
	34	3.5	-2.56808E-001	-3.06809E-001	-2.81808E-001	1.71564E-008	-2.42708E-008	4.14273E-008	-3.07000E-001	4.32706E-004	6	..........a	-327.68
	36	3.7	-2.52826E-001	-3.02876E-001	-2.77851E-001	1.76532E-008	-2.44185E-008	4.20717E-008	-3.03000E-001	4.19206E-004	6	..........a	-327.68
	38	3.9	-2.48851E-001	-2.98837E-001	-2.73844E-001	1.78542E-008	-2.44195E-008	4.22737E-008	-2.99000E-001	4.26373E-004	6	..........a	-327.68
	40	4.1	-2.44874E-001	-2.94866E-001	-2.69870E-001	1.81179E-008	-2.45859E-008	4.27038E-008	-2.95000E-001	4.34039E-004	6	..........a	-327.68
	42	4.3	-2.40825E-001	-2.90784E-001	-2.65804E-001	1.81696E-008	-2.44172E-008	4.25867E-008	-2.91000E-001	4.20539E-004	6	..........a	-327.68
	44	4.5	-2.36802E-001	-2.86831E-001	-2.61816E-001	1.82192E-008	-2.42532E-008	4.24724E-008	-2.87000E-001	4.29039E-004	6	..........a	-327.68
	46	4.7	-2.32816E-001	-2.82789E-001	-2.57803E-001	1.78709E-008	-2.40421E-008	4.19130E-008	-2.83000E-001	4.25873E-004	6	..........a	-327.68
	48	4.9	-2.28796E-001	-2.78838E-001	-2.53817E-001	1.75885E-008	-2.37788E-008	4.13673E-008	-2.79000E-001	4.24373E-004	6	..........a	-327.68
	50	5.1	-2.24850E-001	-2.74834E-001	-2.49842E-001	1.75902E-008	-2.32670E-008	4.08572E-008	-2.75000E-001	4.21706E-004	6	..........a	-327.68
	52	5.3	-2.20846E-001	-2.70868E-001	-2.45857E-001	1.70918E-008	-2.26996E-008	3.97914E-008	-2.71000E-001	4.18039E-004	6	..........a	-327.68
	54	5.5	-2.16831E-001	-2.66780E-001	-2.41805E-001	1.70458E-008	-2.21576E-008	3.92033E-008	-2.67000E-001	4.35373E-004	6	..........a	-327.68
	56	5.7	-2.12799E-001	-2.62873E-001	-2.37836E-001	1.67304E-008	-2.14401E-008	3.81705E-008	-2.63000E-001	4.15706E-004	6	..........a	-327.68
	58	5.9	-2.08805E-001	-2.58796E-001	-2.33800E-001	1.65834E-008	-2.08921E-008	3.74754E-008	-2.59000E-001	4.40873E-004	6	..........a	-327.68
	60	6.1	-2.04783E-001	-2.54872E-001	-2.29827E-001	1.65494E-008	-2.01193E-008	3.66687E-008	-2.55000E-001	4.31706E-004	6	..........a	-327.68
	62	6.3	-2.00842E-001	-2.50819E-001	-2.25831E-001	1.63477E-008	-1.94649E-008	3.58126E-008	-2.51000E-001	4.50873E-004	6	..........a	-327.68
	64	6.5	-1.96851E-001	-2.46859E-001	-2.21855E-001	1.61486E-008	-1.87745E-008	3.49231E-008	-2.47000E-001	4.32873E-004	6	..........a	-327.68
	66	6.7	-1.92866E-001	-2.42771E-001	-2.17819E-001	1.60816E-008	-1.81237E-008	3.42053E-008	-2.43000E-001	4.31539E-004	6	..........a	-327.68
	68	6.9	-1.88717E-001	-2.38832E-001	-2.13775E-001	1.59446E-008	-1.77707E-008	3.37153E-008	-2.39000E-001	4.43373E-004	6	..........a	-327.68
	70	7.1	-1.84825E-001	-2.34792E-001	-2.09809E-001	1.60700E-008	-1.72106E-008	3.32806E-008	-2.35000E-001	4.37373E-004	6	..........a	-327.68
	72	7.3	-1.80756E-001	-2.30824E-001	-2.05790E-001	1.59039E-008	-1.67489E-008	3.26528E-008	-2.31000E-001	4.22206E-004	6	..........a	-327.68
	74	7.5	-1.76812E-001	-2.26804E-001	-2.01808E-001	1.59463E-008	-1.63472E-008	3.22934E-008	-2.27000E-001	4.29373E-004	6	..........a	-327.68
	76	7.7	-1.72822E-001	-2.22846E-001	-1.97834E-001	1.59119E-008	-1.59618E-008	3.18737E-008	-2.23000E-001	4.25039E-004	6	..........a	-327.68
	78	7.9	-1.68855E-001	-2.18836E-001	-1.93846E-001	1.58349E-008	-1.56874E-008	3.15223E-008	-2.19000E-001	4.49039E-004	6	..........a	-327.68
	80	8.1	-1.64681E-001	-2.14831E-001	-1.89756E-001	1.60096E-008	-1.52784E-008	3.12880E-008	-2.15000E-001	4.23706E-004	6	..........a	-327.68
	82	8.3	-1.60866E-001	-2.10793E-001	-1.85829E-001	1.60783E-008	-1.50747E-008	3.11530E-008	-2.11000E-001	4.27539E-004	6	..........a	-327.68
	84	8.5	-1.56755E-001	-2.06828E-001	-1.81791E-001	1.60563E-008	-1.48390E-008	3.08953E-008	-2.07000E-001	4.25539E-004	6	..........a	-327.68
	86	8.7	-1.52837E-001	-2.02798E-001	-1.77818E-001	1.61223E-008	-1.46873E-008	3.08096E-008	-2.03000E-001	4.21706E-004	6	..........a	-327.68
	88	8.9	-1.48813E-001	-1.98866E-001	-1.73840E-001	1.62730E-008	-1.43662E-008	3.06392E-008	-1.99000E-001	4.32873E-004	6	..........a	-327.68
	90	9.1	-1.44860E-001	-1.94834E-001	-1.69847E-001	1.63087E-008	-1.42679E-008	3.05766E-008	-1.95000E-001	4.20039E-004	6	..........a	-327.68
	92	9.3	-1.40857E-001	-1.90862E-001	-1.65860E-001	1.65250E-008	-1.39145E-008	3.04395E-008	-1.91000E-001	4.24706E-004	6	..........a	-327.68
	94	9.5	-1.36823E-001	-1.86797E-001	-1.61810E-001	1.64050E-008	-1.36888E-008	3.00938E-008	-1.87000E-001	4.40206E-004	6	..........a	-327.68
	96	9.7	-1.32743E-001	-1.82828E-001	-1.57785E-001	1.64627E-008	-1.35438E-008	3.00065E-008	-1.83000E-001	4.32373E-004	6	..........a	-327.68
	98	9.9	-1.28792E-001	-1.78791E-001	-1.53791E-001	1.65180E-008	-1.33428E-008	2.98608E-008	-1.79000E-001	4.22039E-004	6	..........a	-327.68
	100	10.1	-1.24801E-001	-1.74861E-001	-1.49831E-001	1.65820E-008	-1.33641E-008	2.99461E-008	-1.75000E-001	4.37039E-004	6	..........a	-327.68

File: SWV_10Hz STD2 aptmch 081020_#3.DTA
EXPLAIN
TAG	SQUARE_WAVE
TITLE	LABEL	Square Wave Voltammetry	Test Identifier
DATE	LABEL	8/10/2020	Date
TIME	LABEL	13:00:57	Time
NOTES	NOTES	1	Notes...
	 STD2 aptmch 08102
PSTAT	PSTAT	REF600-24079	Potentiostat
VINIT	QUANT	-3.50000E-001	Initial E (V)
VFINAL	QUANT	-1.50000E-001	Final E (V)
STEPSIZE	QUANT	2.00000E+000	Step Size (mV)
TIMERRES	QUANT	3.33340E-005	&Timer Resolution
FREQUENCY	QUANT	1.00000E+001	Frequency (Hz)
PULSESIZE	QUANT	2.50000E+001	Pulse Size E (mV)
PULSEON	QUANT	1.00000E-001	Pulse &Time (s)
NOISEREJECT	TOGGLE	F	Noise Rejection
AREA	QUANT	2.00000E-002	Sample Area (cm^2)
IMODE	SELECTOR	1	I/E Range Mode
IRANGE	QUANT	1.00000E-003	Max Current (mA)
EQDELAY	IQUANT	10	Equil. Time (s)
IRCOMP	SELECTOR	0	IRComp
PFCOR	QUANT	5.00000E+001	PF Corr. (ohm)
CYCLES	IQUANT	101	C&ycles (#)
ELECTRODETYPE	SELECTOR	0	Electrode Type
STRIPPING	TOGGLE	F	Used for Stripping
POLARITY	TOGGLE	F	Signal Polarity
LINEFREQ	IQUANT	60	Line Frequency (Hz)
INTPERIOD	QUANT	3.3334E-005	Integration Period (s)
SEQUENCER	TOGGLE	TRUE	Run as Sequence
PSTATMODEL	IQUANT	4	Pstat Model
PSTATSECTION	LABEL	REF600-24079	Pstat Section
PSTATSERIALNO	LABEL	24079	Pstat Serial Number
CTRLMODE	IQUANT	1	Control Mode
ELECTROMETER	IQUANT	0	RE=0 or CS=1
IESTAB	IQUANT	2	I/E Stability
CASPEED	IQUANT	6	Control Amp Speed
CONVENTION	IQUANT	1	Current Convention
ICHRANGE	IQUANT	2	Ich Range
ICHRANGEMODE	TOGGLE	F	Ich Auto Range
ICHOFFSETENABLE	TOGGLE	F	Ich Offset Enable
ICHOFFSET	QUANT	0	Ich Offset (V)
ICHFILTER	IQUANT	2	Ich Filter
VCHRANGE	IQUANT	2	Vch Range
VCHRANGEMODE	TOGGLE	F	Vch Auto Range
VCHOFFSETENABLE	TOGGLE	F	Vch Offset Enable
VCHOFFSET	QUANT	0	Vch Offset (V)
VCHFILTER	IQUANT	2	Vch Filter
ACHRANGE	IQUANT	2	Ach Range
ACHOFFSETENABLE	TOGGLE	F	Ach Offset Enable
ACHOFFSET	QUANT	0	Ach Offset (V)
ACHFILTER	IQUANT	1	Ach Filter
IERANGELOWERLIMIT	IQUANT	1	I/E Range Lower Limit
IERANGEMODE	TOGGLE	F	I/E AutoRange
IERANGE	IQUANT	6	I/E Range
POSFEEDENABLE	TOGGLE	F	Positive Feedback IR Comp
POSFEEDRESISTANCE	QUANT	0	Positive Feedback Resistance (ohm)
ACHSELECT	IQUANT	0	Ach Select
SENSECABLEID	IQUANT	13	Sense Cable ID
PWRCABLEID	IQUANT	13	Power Cable ID
DCCALDATE	LABEL	6/30/2020	DC Calibration Date
ACCALDATE	LABEL	6/30/2020	AC Calibration Date
THERMOSELECT	IQUANT	1	Thermo Select
FRAMEWORKVERSION	LABEL	7.8.2	Framework Version
INSTRUMENTVERSION	LABEL	4.40	Instrument Version
CURVE	TABLE	101
	Pt	T	Vfwd	Vrev	Vstep	Ifwd	Irev	Idif	Sig	Ach	IERange	Over	Temp
	#	s	V	V	V	A	A	A	V	V	#	bits	deg C
	0	0.1	-3.24850E-001	-3.74874E-001	-3.49862E-001	-8.77653E-009	-3.87120E-008	2.99355E-008	-3.75000E-001	4.33873E-004	6	..........a	-327.68
	2	0.3	-3.20883E-001	-3.70771E-001	-3.45827E-001	5.66330E-009	-3.18175E-008	3.74808E-008	-3.71000E-001	3.97706E-004	6	..........a	-327.68
	4	0.5	-3.16765E-001	-3.66957E-001	-3.41861E-001	7.71490E-009	-2.99639E-008	3.76788E-008	-3.67000E-001	3.98206E-004	6	..........a	-327.68
	6	0.7	-3.12863E-001	-3.62794E-001	-3.37828E-001	8.69302E-009	-2.85137E-008	3.72067E-008	-3.63000E-001	4.16039E-004	6	..........a	-327.68
	8	0.9	-3.08790E-001	-3.58887E-001	-3.33838E-001	9.53380E-009	-2.75239E-008	3.70577E-008	-3.59000E-001	3.98039E-004	6	..........a	-327.68
	10	1.1	-3.04852E-001	-3.54805E-001	-3.29828E-001	1.01819E-008	-2.66415E-008	3.68234E-008	-3.55000E-001	4.01373E-004	6	..........a	-327.68
	12	1.3	-3.00851E-001	-3.50863E-001	-3.25857E-001	1.08413E-008	-2.59004E-008	3.67417E-008	-3.51000E-001	4.00539E-004	6	..........a	-327.68
	14	1.5	-2.96877E-001	-3.46846E-001	-3.21862E-001	1.14580E-008	-2.53396E-008	3.67977E-008	-3.47000E-001	4.06206E-004	6	..........a	-327.68
	16	1.7	-2.92741E-001	-3.43022E-001	-3.17881E-001	1.21881E-008	-2.47569E-008	3.69450E-008	-3.43000E-001	4.01873E-004	6	..........a	-327.68
	18	1.9	-2.88873E-001	-3.38796E-001	-3.13834E-001	1.28289E-008	-2.43849E-008	3.72137E-008	-3.39000E-001	4.01873E-004	6	..........a	-327.68
	20	2.1	-2.84777E-001	-3.34886E-001	-3.09831E-001	1.35666E-008	-2.40218E-008	3.75884E-008	-3.35000E-001	4.05039E-004	6	..........a	-327.68
	22	2.3	-2.80852E-001	-3.30804E-001	-3.05828E-001	1.42414E-008	-2.38721E-008	3.81135E-008	-3.31000E-001	4.10873E-004	6	..........a	-327.68
	24	2.5	-2.76839E-001	-3.26873E-001	-3.01856E-001	1.47638E-008	-2.35274E-008	3.82912E-008	-3.27000E-001	4.11706E-004	6	..........a	-327.68
	26	2.7	-2.72859E-001	-3.22840E-001	-2.97850E-001	1.55996E-008	-2.34414E-008	3.90410E-008	-3.23000E-001	4.18539E-004	6	..........a	-327.68
	28	2.9	-2.68877E-001	-3.18993E-001	-2.93935E-001	1.63577E-008	-2.33744E-008	3.97321E-008	-3.19000E-001	4.08206E-004	6	..........a	-327.68
	30	3.1	-2.64842E-001	-3.14832E-001	-2.89837E-001	1.69154E-008	-2.32200E-008	4.01354E-008	-3.15000E-001	4.15373E-004	6	..........a	-327.68
	32	3.3	-2.60802E-001	-3.10902E-001	-2.85852E-001	1.75058E-008	-2.33247E-008	4.08305E-008	-3.11000E-001	4.09539E-004	6	..........a	-327.68
	34	3.5	-2.56829E-001	-3.06810E-001	-2.81820E-001	1.81242E-008	-2.33371E-008	4.14613E-008	-3.07000E-001	3.96039E-004	6	..........a	-327.68
	36	3.7	-2.52842E-001	-3.02881E-001	-2.77861E-001	1.85509E-008	-2.34644E-008	4.20153E-008	-3.03000E-001	4.16206E-004	6	..........a	-327.68
	38	3.9	-2.48871E-001	-2.98835E-001	-2.73853E-001	1.87486E-008	-2.34864E-008	4.22350E-008	-2.99000E-001	4.32373E-004	6	..........a	-327.68
	40	4.1	-2.44869E-001	-2.94872E-001	-2.69870E-001	1.88003E-008	-2.35494E-008	4.23497E-008	-2.95000E-001	4.14539E-004	6	..........a	-327.68
	42	4.3	-2.40852E-001	-2.90781E-001	-2.65816E-001	1.90190E-008	-2.34371E-008	4.24561E-008	-2.91000E-001	4.24373E-004	6	..........a	-327.68
	44	4.5	-2.36835E-001	-2.86912E-001	-2.61873E-001	1.88000E-008	-2.33764E-008	4.21764E-008	-2.87000E-001	4.22706E-004	6	..........a	-327.68
	46	4.7	-2.32829E-001	-2.82789E-001	-2.57809E-001	1.87970E-008	-2.31604E-008	4.19573E-008	-2.83000E-001	4.14873E-004	6	..........a	-327.68
	48	4.9	-2.28806E-001	-2.78883E-001	-2.53845E-001	1.87500E-008	-2.26793E-008	4.14293E-008	-2.79000E-001	4.11539E-004	6	..........a	-327.68
	50	5.1	-2.24854E-001	-2.74837E-001	-2.49845E-001	1.83743E-008	-2.25480E-008	4.09222E-008	-2.75000E-001	4.16706E-004	6	..........a	-327.68
	52	5.3	-2.20858E-001	-2.70868E-001	-2.45863E-001	1.81539E-008	-2.19742E-008	4.01281E-008	-2.71000E-001	4.16706E-004	6	..........a	-327.68
	54	5.5	-2.16838E-001	-2.66768E-001	-2.41803E-001	1.79052E-008	-2.13675E-008	3.92727E-008	-2.67000E-001	4.15373E-004	6	..........a	-327.68
	56	5.7	-2.12841E-001	-2.62874E-001	-2.37857E-001	1.79312E-008	-2.04043E-008	3.83355E-008	-2.63000E-001	4.00706E-004	6	..........a	-327.68
	58	5.9	-2.08831E-001	-2.58786E-001	-2.33808E-001	1.75678E-008	-1.99370E-008	3.75048E-008	-2.59000E-001	4.10873E-004	6	..........a	-327.68
	60	6.1	-2.04808E-001	-2.54884E-001	-2.29846E-001	1.74815E-008	-1.95082E-008	3.69897E-008	-2.55000E-001	4.24206E-004	6	..........a	-327.68
	62	6.3	-2.00853E-001	-2.50819E-001	-2.25836E-001	1.72528E-008	-1.86715E-008	3.59242E-008	-2.51000E-001	4.12706E-004	6	..........a	-327.68
	64	6.5	-1.96846E-001	-2.46858E-001	-2.21852E-001	1.72268E-008	-1.80771E-008	3.53038E-008	-2.47000E-001	4.18039E-004	6	..........a	-327.68
	66	6.7	-1.92884E-001	-2.42767E-001	-2.17825E-001	1.70748E-008	-1.75123E-008	3.45871E-008	-2.43000E-001	4.15539E-004	6	..........a	-327.68
	68	6.9	-1.88763E-001	-2.38926E-001	-2.13844E-001	1.71418E-008	-1.68616E-008	3.40033E-008	-2.39000E-001	4.10706E-004	6	..........a	-327.68
	70	7.1	-1.84828E-001	-2.34785E-001	-2.09806E-001	1.70374E-008	-1.65732E-008	3.36106E-008	-2.35000E-001	4.16539E-004	6	..........a	-327.68
	72	7.3	-1.80774E-001	-2.30871E-001	-2.05823E-001	1.70161E-008	-1.60565E-008	3.30725E-008	-2.31000E-001	4.21539E-004	6	..........a	-327.68
	74	7.5	-1.76803E-001	-2.26802E-001	-2.01802E-001	1.68874E-008	-1.57004E-008	3.25878E-008	-2.27000E-001	4.22706E-004	6	..........a	-327.68
	76	7.7	-1.72836E-001	-2.22849E-001	-1.97843E-001	1.68994E-008	-1.54220E-008	3.23214E-008	-2.23000E-001	4.28873E-004	6	..........a	-327.68
	78	7.9	-1.68844E-001	-2.18832E-001	-1.93838E-001	1.69794E-008	-1.50543E-008	3.20337E-008	-2.19000E-001	4.22373E-004	6	..........a	-327.68
	80	8.1	-1.64718E-001	-2.14937E-001	-1.89828E-001	1.69971E-008	-1.46956E-008	3.16927E-008	-2.15000E-001	4.18373E-004	6	..........a	-327.68
	82	8.3	-1.60864E-001	-2.10788E-001	-1.85826E-001	1.69317E-008	-1.45209E-008	3.14527E-008	-2.11000E-001	4.03706E-004	6	..........a	-327.68
	84	8.5	-1.56788E-001	-2.06862E-001	-1.81825E-001	1.71568E-008	-1.43236E-008	3.14803E-008	-2.07000E-001	4.13373E-004	6	..........a	-327.68
	86	8.7	-1.52855E-001	-2.02797E-001	-1.77826E-001	1.72028E-008	-1.38208E-008	3.10236E-008	-2.03000E-001	4.25539E-004	6	..........a	-327.68
	88	8.9	-1.48833E-001	-1.98882E-001	-1.73857E-001	1.71488E-008	-1.37422E-008	3.08909E-008	-1.99000E-001	4.13373E-004	6	..........a	-327.68
	90	9.1	-1.44843E-001	-1.94833E-001	-1.69838E-001	1.72661E-008	-1.35895E-008	3.08556E-008	-1.95000E-001	4.15539E-004	6	..........a	-327.68
	92	9.3	-1.40864E-001	-1.90973E-001	-1.65918E-001	1.72504E-008	-1.32634E-008	3.05139E-008	-1.91000E-001	4.29039E-004	6	..........a	-327.68
	94	9.5	-1.36829E-001	-1.86786E-001	-1.61808E-001	1.75528E-008	-1.32821E-008	3.08349E-008	-1.87000E-001	4.20039E-004	6	..........a	-327.68
	96	9.7	-1.32766E-001	-1.82869E-001	-1.57818E-001	1.75515E-008	-1.28104E-008	3.03619E-008	-1.83000E-001	4.15039E-004	6	..........a	-327.68
	98	9.9	-1.28819E-001	-1.78790E-001	-1.53804E-001	1.77095E-008	-1.29054E-008	3.06149E-008	-1.79000E-001	4.07539E-004	6	..........a	-327.68
	100	10.1	-1.24823E-001	-1.74856E-001	-1.49839E-001	1.75391E-008	-1.27750E-008	3.03142E-008	-1.75000E-001	4.16039E-004	6	..........a	-327.68