Folder: EchemAnalysis_AMA/Sample Data/Concentration Curve Data/C-COM3 (part 7)

File: SWV_10Hz STD3 100  fgml 081020_#4.DTA
EXPLAIN
TAG	SQUARE_WAVE
TITLE	LABEL	Square Wave Voltammetry	Test Identifier
DATE	LABEL	8/10/2020	Date
TIME	LABEL	20:25:06	Time
NOTES	NOTES	1	Notes...
	 STD3 100  fg/mL 08102
PSTAT	PSTAT	REF600-24079	Potentiostat
VINIT	QUANT	-3.50000E-001	Initial E (V)
VFINAL	QUANT	-1.50000E-001	Final E (V)
STEPSIZE	QUANT	2.00000E+000	Step Size (mV)
TIMERRES	QUANT	3.33340E-005	&Timer Resolution
FREQUENCY	QUANT	1.00000E+001	Frequency (Hz)
PULSESIZE	QUANT	2.50000E+001	Pulse Size E (mV)
PULSEON	QUANT	1.00000E-001	Pulse &Time (s)
NOISEREJECT	TOGGLE	F	Noise Rejection
AREA	QUANT	2.00000E-002	Sample Area (cm^2)
IMODE	SELECTOR	1	I/E Range Mode
IRANGE	QUANT	1.00000E-003	Max Current (mA)
EQDELAY	IQUANT	10	Equil. Time (s)
IRCOMP	SELECTOR	0	IRComp
PFCOR	QUANT	5.00000E+001	PF Corr. (ohm)
CYCLES	IQUANT	101	C&ycles (#)
ELECTRODETYPE	SELECTOR	0	Electrode Type
STRIPPING	TOGGLE	F	Used for Stripping
POLARITY	TOGGLE	F	Signal Polarity
LINEFREQ	IQUANT	60	Line Frequency (Hz)
INTPERIOD	QUANT	3.3334E-005	Integration Period (s)
SEQUENCER	TOGGLE	TRUE	Run as Sequence
PSTATMODEL	IQUANT	4	Pstat Model
PSTATSECTION	LABEL	REF600-24079	Pstat Section
PSTATSERIALNO	LABEL	24079	Pstat Serial Number
CTRLMODE	IQUANT	1	Control Mode
ELECTROMETER	IQUANT	0	RE=0 or CS=1
IESTAB	IQUANT	2	I/E Stability
CASPEED	IQUANT	6	Control Amp Speed
CONVENTION	IQUANT	1	Current Convention
ICHRANGE	IQUANT	2	Ich Range
ICHRANGEMODE	TOGGLE	F	Ich Auto Range
ICHOFFSETENABLE	TOGGLE	F	Ich Offset Enable
ICHOFFSET	QUANT	0	Ich Offset (V)
ICHFILTER	IQUANT	2	Ich Filter
VCHRANGE	IQUANT	2	Vch Range
VCHRANGEMODE	TOGGLE	F	Vch Auto Range
VCHOFFSETENABLE	TOGGLE	F	Vch Offset Enable
VCHOFFSET	QUANT	0	Vch Offset (V)
VCHFILTER	IQUANT	2	Vch Filter
ACHRANGE	IQUANT	2	Ach Range
ACHOFFSETENABLE	TOGGLE	F	Ach Offset Enable
ACHOFFSET	QUANT	0	Ach Offset (V)
ACHFILTER	IQUANT	1	Ach Filter
IERANGELOWERLIMIT	IQUANT	1	I/E Range Lower Limit
IERANGEMODE	TOGGLE	F	I/E AutoRange
IERANGE	IQUANT	6	I/E Range
POSFEEDENABLE	TOGGLE	F	Positive Feedback IR Comp
POSFEEDRESISTANCE	QUANT	0	Positive Feedback Resistance (ohm)
ACHSELECT	IQUANT	0	Ach Select
SENSECABLEID	IQUANT	13	Sense Cable ID
PWRCABLEID	IQUANT	13	Power Cable ID
DCCALDATE	LABEL	6/30/2020	DC Calibration Date
ACCALDATE	LABEL	6/30/2020	AC Calibration Date
THERMOSELECT	IQUANT	1	Thermo Select
FRAMEWORKVERSION	LABEL	7.8.2	Framework Version
INSTRUMENTVERSION	LABEL	4.40	Instrument Version
CURVE	TABLE	101
	Pt	T	Vfwd	Vrev	Vstep	Ifwd	Irev	Idif	Sig	Ach	IERange	Over	Temp
	#	s	V	V	V	A	A	A	V	V	#	bits	deg C
	0	0.1	-3.24896E-001	-3.74994E-001	-3.49945E-001	-1.07432E-007	-2.17325E-007	1.09894E-007	-3.75000E-001	4.07539E-004	6	..........a	-327.68
	2	0.3	-3.20901E-001	-3.70788E-001	-3.45845E-001	-8.80900E-008	-2.03145E-007	1.15055E-007	-3.71000E-001	3.92539E-004	6	..........a	-327.68
	4	0.5	-3.16824E-001	-3.67073E-001	-3.41949E-001	-8.22195E-008	-1.94171E-007	1.11952E-007	-3.67000E-001	3.89706E-004	6	..........a	-327.68
	6	0.7	-3.12913E-001	-3.62835E-001	-3.37874E-001	-7.70206E-008	-1.85559E-007	1.08539E-007	-3.63000E-001	3.71539E-004	6	..........a	-327.68
	8	0.9	-3.08894E-001	-3.58997E-001	-3.33945E-001	-7.21199E-008	-1.77377E-007	1.05257E-007	-3.59000E-001	4.21206E-004	6	..........a	-327.68
	10	1.1	-3.04905E-001	-3.54839E-001	-3.29872E-001	-6.76117E-008	-1.69809E-007	1.02197E-007	-3.55000E-001	4.15039E-004	6	..........a	-327.68
	12	1.3	-3.00891E-001	-3.50977E-001	-3.25934E-001	-6.31965E-008	-1.62721E-007	9.95243E-008	-3.51000E-001	4.14373E-004	6	..........a	-327.68
	14	1.5	-2.96896E-001	-3.46889E-001	-3.21892E-001	-5.88799E-008	-1.55216E-007	9.63359E-008	-3.47000E-001	4.03539E-004	6	..........a	-327.68
	16	1.7	-2.92795E-001	-3.43069E-001	-3.17932E-001	-5.48797E-008	-1.48875E-007	9.39956E-008	-3.43000E-001	4.03539E-004	6	..........a	-327.68
	18	1.9	-2.88937E-001	-3.38842E-001	-3.13889E-001	-5.07649E-008	-1.42201E-007	9.14356E-008	-3.39000E-001	3.91706E-004	6	..........a	-327.68
	20	2.1	-2.84871E-001	-3.35024E-001	-3.09948E-001	-4.71387E-008	-1.36136E-007	8.89977E-008	-3.35000E-001	3.87873E-004	6	..........a	-327.68
	22	2.3	-2.80928E-001	-3.30831E-001	-3.05879E-001	-4.34506E-008	-1.30192E-007	8.67417E-008	-3.31000E-001	4.03706E-004	6	..........a	-327.68
	24	2.5	-2.76884E-001	-3.27002E-001	-3.01943E-001	-4.00848E-008	-1.24777E-007	8.46921E-008	-3.27000E-001	3.88039E-004	6	..........a	-327.68
	26	2.7	-2.72902E-001	-3.22882E-001	-2.97892E-001	-3.64507E-008	-1.19202E-007	8.27509E-008	-3.23000E-001	4.08206E-004	6	..........a	-327.68
	28	2.9	-2.68900E-001	-3.19122E-001	-2.94011E-001	-3.32903E-008	-1.14188E-007	8.08973E-008	-3.19000E-001	4.00539E-004	6	..........a	-327.68
	30	3.1	-2.64897E-001	-3.14900E-001	-2.89898E-001	-2.99042E-008	-1.09235E-007	7.93304E-008	-3.15000E-001	4.00373E-004	6	..........a	-327.68
	32	3.3	-2.60861E-001	-3.11079E-001	-2.85970E-001	-2.69415E-008	-1.04501E-007	7.75592E-008	-3.11000E-001	4.00373E-004	6	..........a	-327.68
	34	3.5	-2.56887E-001	-3.06846E-001	-2.81867E-001	-2.41001E-008	-1.00311E-007	7.62104E-008	-3.07000E-001	3.93539E-004	6	..........a	-327.68
	36	3.7	-2.52886E-001	-3.03050E-001	-2.77968E-001	-2.14321E-008	-9.60980E-008	7.46658E-008	-3.03000E-001	3.99873E-004	6	..........a	-327.68
	38	3.9	-2.48908E-001	-2.98880E-001	-2.73894E-001	-1.88878E-008	-9.20505E-008	7.31626E-008	-2.99000E-001	3.95539E-004	6	..........a	-327.68
	40	4.1	-2.44896E-001	-2.94986E-001	-2.69941E-001	-1.63555E-008	-8.81396E-008	7.17841E-008	-2.95000E-001	3.98373E-004	6	..........a	-327.68
	42	4.3	-2.40902E-001	-2.90831E-001	-2.65866E-001	-1.39115E-008	-8.46765E-008	7.07650E-008	-2.91000E-001	3.99039E-004	6	..........a	-327.68
	44	4.5	-2.36904E-001	-2.87078E-001	-2.61991E-001	-1.18069E-008	-8.11577E-008	6.93508E-008	-2.87000E-001	4.00039E-004	6	..........a	-327.68
	46	4.7	-2.32886E-001	-2.82827E-001	-2.57856E-001	-9.67165E-009	-7.74573E-008	6.77856E-008	-2.83000E-001	4.04206E-004	6	..........a	-327.68
	48	4.9	-2.28849E-001	-2.78994E-001	-2.53921E-001	-7.94343E-009	-7.43319E-008	6.63884E-008	-2.79000E-001	4.01539E-004	6	..........a	-327.68
	50	5.1	-2.24899E-001	-2.74877E-001	-2.49888E-001	-6.12353E-009	-7.09998E-008	6.48763E-008	-2.75000E-001	4.01373E-004	6	..........a	-327.68
	52	5.3	-2.20885E-001	-2.70961E-001	-2.45923E-001	-4.48465E-009	-6.83144E-008	6.38298E-008	-2.71000E-001	4.07039E-004	6	..........a	-327.68
	54	5.5	-2.16902E-001	-2.66797E-001	-2.41849E-001	-2.81511E-009	-6.55681E-008	6.27530E-008	-2.67000E-001	3.93706E-004	6	..........a	-327.68
	56	5.7	-2.12993E-001	-2.63087E-001	-2.38040E-001	-1.27325E-009	-6.27434E-008	6.14702E-008	-2.63000E-001	4.15706E-004	6	..........a	-327.68
	58	5.9	-2.08874E-001	-2.58839E-001	-2.33856E-001	2.42281E-010	-5.99360E-008	6.01783E-008	-2.59000E-001	4.03373E-004	6	..........a	-327.68
	60	6.1	-2.04852E-001	-2.55087E-001	-2.29970E-001	1.58078E-009	-5.75047E-008	5.90855E-008	-2.55000E-001	4.05873E-004	6	..........a	-327.68
	62	6.3	-2.00888E-001	-2.50868E-001	-2.25878E-001	2.75293E-009	-5.49564E-008	5.77093E-008	-2.51000E-001	3.94873E-004	6	..........a	-327.68
	64	6.5	-1.96895E-001	-2.46950E-001	-2.21923E-001	3.80940E-009	-5.26405E-008	5.64499E-008	-2.47000E-001	3.93873E-004	6	..........a	-327.68
	66	6.7	-1.92912E-001	-2.42806E-001	-2.17859E-001	4.96255E-009	-5.05689E-008	5.55314E-008	-2.43000E-001	3.87039E-004	6	..........a	-327.68
	68	6.9	-1.88822E-001	-2.39114E-001	-2.13968E-001	6.01768E-009	-4.82506E-008	5.42682E-008	-2.39000E-001	3.89539E-004	6	..........a	-327.68
	70	7.1	-1.84902E-001	-2.34833E-001	-2.09868E-001	7.16983E-009	-4.63890E-008	5.35588E-008	-2.35000E-001	3.90039E-004	6	..........a	-327.68
	72	7.3	-1.80817E-001	-2.31022E-001	-2.05919E-001	8.01360E-009	-4.44724E-008	5.24860E-008	-2.31000E-001	3.65206E-004	6	..........a	-327.68
	74	7.5	-1.76867E-001	-2.26841E-001	-2.01854E-001	8.99139E-009	-4.28855E-008	5.18769E-008	-2.27000E-001	3.79206E-004	6	..........a	-327.68
	76	7.7	-1.72884E-001	-2.22993E-001	-1.97939E-001	9.74949E-009	-4.08866E-008	5.06361E-008	-2.23000E-001	3.74873E-004	6	..........a	-327.68
	78	7.9	-1.68894E-001	-2.18885E-001	-1.93890E-001	1.06416E-008	-3.94861E-008	5.01277E-008	-2.19000E-001	3.88039E-004	6	..........a	-327.68
	80	8.1	-1.64824E-001	-2.15080E-001	-1.89952E-001	1.15727E-008	-3.80423E-008	4.96150E-008	-2.15000E-001	3.74873E-004	6	..........a	-327.68
	82	8.3	-1.60921E-001	-2.10879E-001	-1.85900E-001	1.25882E-008	-3.65311E-008	4.91192E-008	-2.11000E-001	3.66039E-004	6	..........a	-327.68
	84	8.5	-1.56843E-001	-2.07065E-001	-1.81954E-001	1.30232E-008	-3.53866E-008	4.84098E-008	-2.07000E-001	3.88873E-004	6	..........a	-327.68
	86	8.7	-1.52893E-001	-2.02852E-001	-1.77872E-001	1.39887E-008	-3.39387E-008	4.79274E-008	-2.03000E-001	3.84706E-004	6	..........a	-327.68
	88	8.9	-1.48870E-001	-1.99051E-001	-1.73960E-001	1.47295E-008	-3.29609E-008	4.76904E-008	-1.99000E-001	3.88706E-004	6	..........a	-327.68
	90	9.1	-1.44887E-001	-1.94874E-001	-1.69881E-001	1.53089E-008	-3.18598E-008	4.71687E-008	-1.95000E-001	3.70206E-004	6	..........a	-327.68
	92	9.3	-1.40901E-001	-1.91068E-001	-1.65984E-001	1.60486E-008	-3.08887E-008	4.69373E-008	-1.91000E-001	3.91206E-004	6	..........a	-327.68
	94	9.5	-1.36862E-001	-1.86864E-001	-1.61863E-001	1.68564E-008	-2.97072E-008	4.65636E-008	-1.87000E-001	3.83706E-004	6	..........a	-327.68
	96	9.7	-1.32823E-001	-1.83050E-001	-1.57937E-001	1.75668E-008	-2.88701E-008	4.64369E-008	-1.83000E-001	4.00539E-004	6	..........a	-327.68
	98	9.9	-1.28858E-001	-1.78825E-001	-1.53841E-001	1.78719E-008	-2.83314E-008	4.62032E-008	-1.79000E-001	3.89873E-004	6	..........a	-327.68
	100	10.1	-1.24867E-001	-1.75040E-001	-1.49954E-001	1.85913E-008	-2.72372E-008	4.58285E-008	-1.75000E-001	3.73039E-004	6	..........a	-327.68

File: SWV_10Hz STD3 100  fgml 081020_#7.DTA
EXPLAIN
TAG	SQUARE_WAVE
TITLE	LABEL	Square Wave Voltammetry	Test Identifier
DATE	LABEL	8/10/2020	Date
TIME	LABEL	20:26:07	Time
NOTES	NOTES	1	Notes...
	 STD3 100  fg/mL 08102
PSTAT	PSTAT	REF600-24079	Potentiostat
VINIT	QUANT	-3.50000E-001	Initial E (V)
VFINAL	QUANT	-1.50000E-001	Final E (V)
STEPSIZE	QUANT	2.00000E+000	Step Size (mV)
TIMERRES	QUANT	3.33340E-005	&Timer Resolution
FREQUENCY	QUANT	1.00000E+001	Frequency (Hz)
PULSESIZE	QUANT	2.50000E+001	Pulse Size E (mV)
PULSEON	QUANT	1.00000E-001	Pulse &Time (s)
NOISEREJECT	TOGGLE	F	Noise Rejection
AREA	QUANT	2.00000E-002	Sample Area (cm^2)
IMODE	SELECTOR	1	I/E Range Mode
IRANGE	QUANT	1.00000E-003	Max Current (mA)
EQDELAY	IQUANT	10	Equil. Time (s)
IRCOMP	SELECTOR	0	IRComp
PFCOR	QUANT	5.00000E+001	PF Corr. (ohm)
CYCLES	IQUANT	101	C&ycles (#)
ELECTRODETYPE	SELECTOR	0	Electrode Type
STRIPPING	TOGGLE	F	Used for Stripping
POLARITY	TOGGLE	F	Signal Polarity
LINEFREQ	IQUANT	60	Line Frequency (Hz)
INTPERIOD	QUANT	3.3334E-005	Integration Period (s)
SEQUENCER	TOGGLE	TRUE	Run as Sequence
PSTATMODEL	IQUANT	4	Pstat Model
PSTATSECTION	LABEL	REF600-24079	Pstat Section
PSTATSERIALNO	LABEL	24079	Pstat Serial Number
CTRLMODE	IQUANT	1	Control Mode
ELECTROMETER	IQUANT	0	RE=0 or CS=1
IESTAB	IQUANT	2	I/E Stability
CASPEED	IQUANT	6	Control Amp Speed
CONVENTION	IQUANT	1	Current Convention
ICHRANGE	IQUANT	2	Ich Range
ICHRANGEMODE	TOGGLE	F	Ich Auto Range
ICHOFFSETENABLE	TOGGLE	F	Ich Offset Enable
ICHOFFSET	QUANT	0	Ich Offset (V)
ICHFILTER	IQUANT	2	Ich Filter
VCHRANGE	IQUANT	2	Vch Range
VCHRANGEMODE	TOGGLE	F	Vch Auto Range
VCHOFFSETENABLE	TOGGLE	F	Vch Offset Enable
VCHOFFSET	QUANT	0	Vch Offset (V)
VCHFILTER	IQUANT	2	Vch Filter
ACHRANGE	IQUANT	2	Ach Range
ACHOFFSETENABLE	TOGGLE	F	Ach Offset Enable
ACHOFFSET	QUANT	0	Ach Offset (V)
ACHFILTER	IQUANT	1	Ach Filter
IERANGELOWERLIMIT	IQUANT	1	I/E Range Lower Limit
IERANGEMODE	TOGGLE	F	I/E AutoRange
IERANGE	IQUANT	6	I/E Range
POSFEEDENABLE	TOGGLE	F	Positive Feedback IR Comp
POSFEEDRESISTANCE	QUANT	0	Positive Feedback Resistance (ohm)
ACHSELECT	IQUANT	0	Ach Select
SENSECABLEID	IQUANT	13	Sense Cable ID
PWRCABLEID	IQUANT	13	Power Cable ID
DCCALDATE	LABEL	6/30/2020	DC Calibration Date
ACCALDATE	LABEL	6/30/2020	AC Calibration Date
THERMOSELECT	IQUANT	1	Thermo Select
FRAMEWORKVERSION	LABEL	7.8.2	Framework Version
INSTRUMENTVERSION	LABEL	4.40	Instrument Version
CURVE	TABLE	101
	Pt	T	Vfwd	Vrev	Vstep	Ifwd	Irev	Idif	Sig	Ach	IERange	Over	Temp
	#	s	V	V	V	A	A	A	V	V	#	bits	deg C
	0	0.1	-3.24915E-001	-3.74916E-001	-3.49915E-001	-1.05242E-007	-2.10910E-007	1.05668E-007	-3.75000E-001	3.59039E-004	6	..........a	-327.68
	2	0.3	-3.20903E-001	-3.70787E-001	-3.45845E-001	-8.58443E-008	-1.97799E-007	1.11955E-007	-3.71000E-001	3.39039E-004	6	..........a	-327.68
	4	0.5	-3.16843E-001	-3.66976E-001	-3.41910E-001	-8.03186E-008	-1.88781E-007	1.08462E-007	-3.67000E-001	3.58206E-004	6	..........a	-327.68
	6	0.7	-3.12918E-001	-3.62842E-001	-3.37880E-001	-7.52523E-008	-1.80973E-007	1.05721E-007	-3.63000E-001	3.67206E-004	6	..........a	-327.68
	8	0.9	-3.08902E-001	-3.58923E-001	-3.33913E-001	-7.08674E-008	-1.73356E-007	1.02489E-007	-3.59000E-001	3.76373E-004	6	..........a	-327.68
	10	1.1	-3.04924E-001	-3.54858E-001	-3.29891E-001	-6.63912E-008	-1.66049E-007	9.96580E-008	-3.55000E-001	3.54373E-004	6	..........a	-327.68
	12	1.3	-3.00907E-001	-3.50911E-001	-3.25909E-001	-6.20086E-008	-1.59378E-007	9.73694E-008	-3.51000E-001	3.65539E-004	6	..........a	-327.68
	14	1.5	-2.96895E-001	-3.46908E-001	-3.21902E-001	-5.79928E-008	-1.52642E-007	9.46497E-008	-3.47000E-001	3.63706E-004	6	..........a	-327.68
	16	1.7	-2.92791E-001	-3.42953E-001	-3.17872E-001	-5.39366E-008	-1.46111E-007	9.21741E-008	-3.43000E-001	3.65039E-004	6	..........a	-327.68
	18	1.9	-2.88938E-001	-3.38857E-001	-3.13898E-001	-5.02011E-008	-1.40151E-007	8.99501E-008	-3.39000E-001	3.39539E-004	6	..........a	-327.68
	20	2.1	-2.84878E-001	-3.34935E-001	-3.09907E-001	-4.66437E-008	-1.34099E-007	8.74558E-008	-3.35000E-001	3.39373E-004	6	..........a	-327.68
	22	2.3	-2.80947E-001	-3.30840E-001	-3.05893E-001	-4.29166E-008	-1.28488E-007	8.55719E-008	-3.31000E-001	3.47706E-004	6	..........a	-327.68
	24	2.5	-2.76902E-001	-3.26924E-001	-3.01913E-001	-3.94051E-008	-1.23228E-007	8.38233E-008	-3.27000E-001	3.61873E-004	6	..........a	-327.68
	26	2.7	-2.72905E-001	-3.22889E-001	-2.97897E-001	-3.61477E-008	-1.18103E-007	8.19554E-008	-3.23000E-001	3.64539E-004	6	..........a	-327.68
	28	2.9	-2.68911E-001	-3.18966E-001	-2.93939E-001	-3.29739E-008	-1.12873E-007	7.98988E-008	-3.19000E-001	3.39539E-004	6	..........a	-327.68
	30	3.1	-2.64921E-001	-3.14917E-001	-2.89919E-001	-2.97092E-008	-1.08371E-007	7.86620E-008	-3.15000E-001	3.38706E-004	6	..........a	-327.68
	32	3.3	-2.60881E-001	-3.10922E-001	-2.85901E-001	-2.67625E-008	-1.03666E-007	7.69034E-008	-3.11000E-001	3.52539E-004	6	..........a	-327.68
	34	3.5	-2.56891E-001	-3.06862E-001	-2.81876E-001	-2.39718E-008	-9.96184E-008	7.56466E-008	-3.07000E-001	3.57206E-004	6	..........a	-327.68
	36	3.7	-2.52905E-001	-3.02944E-001	-2.77924E-001	-2.12521E-008	-9.54249E-008	7.41728E-008	-3.03000E-001	3.59539E-004	6	..........a	-327.68
	38	3.9	-2.48919E-001	-2.98888E-001	-2.73903E-001	-1.89348E-008	-9.14387E-008	7.25039E-008	-2.99000E-001	3.65206E-004	6	..........a	-327.68
	40	4.1	-2.44909E-001	-2.94920E-001	-2.69914E-001	-1.64612E-008	-8.77252E-008	7.12641E-008	-2.95000E-001	3.61373E-004	6	..........a	-327.68
	42	4.3	-2.40911E-001	-2.90837E-001	-2.65874E-001	-1.41722E-008	-8.43578E-008	7.01856E-008	-2.91000E-001	3.68206E-004	6	..........a	-327.68
	44	4.5	-2.36886E-001	-2.86922E-001	-2.61904E-001	-1.20013E-008	-8.05500E-008	6.85487E-008	-2.87000E-001	3.61039E-004	6	..........a	-327.68
	46	4.7	-2.32890E-001	-2.82841E-001	-2.57865E-001	-9.74566E-009	-7.71536E-008	6.74079E-008	-2.83000E-001	3.61539E-004	6	..........a	-327.68
	48	4.9	-2.28831E-001	-2.78909E-001	-2.53870E-001	-8.07644E-009	-7.41842E-008	6.61077E-008	-2.79000E-001	3.60039E-004	6	..........a	-327.68
	50	5.1	-2.24893E-001	-2.74885E-001	-2.49889E-001	-6.15620E-009	-7.14118E-008	6.52556E-008	-2.75000E-001	3.74206E-004	6	..........a	-327.68
	52	5.3	-2.20896E-001	-2.70885E-001	-2.45890E-001	-4.62034E-009	-6.82894E-008	6.36691E-008	-2.71000E-001	3.67373E-004	6	..........a	-327.68
	54	5.5	-2.16900E-001	-2.66809E-001	-2.41855E-001	-3.07481E-009	-6.56048E-008	6.25299E-008	-2.67000E-001	3.67373E-004	6	..........a	-327.68
	56	5.7	-2.12919E-001	-2.62900E-001	-2.37909E-001	-1.40993E-009	-6.25327E-008	6.11228E-008	-2.63000E-001	3.47706E-004	6	..........a	-327.68
	58	5.9	-2.08902E-001	-2.58843E-001	-2.33872E-001	-2.42448E-010	-6.00917E-008	5.98493E-008	-2.59000E-001	3.63206E-004	6	..........a	-327.68
	60	6.1	-2.04875E-001	-2.54918E-001	-2.29897E-001	1.49744E-009	-5.75811E-008	5.90785E-008	-2.55000E-001	3.52373E-004	6	..........a	-327.68
	62	6.3	-2.00905E-001	-2.50869E-001	-2.25887E-001	2.48157E-009	-5.52168E-008	5.76983E-008	-2.51000E-001	3.49706E-004	6	..........a	-327.68
	64	6.5	-1.96902E-001	-2.46897E-001	-2.21900E-001	3.43602E-009	-5.27791E-008	5.62152E-008	-2.47000E-001	3.45373E-004	6	..........a	-327.68
	66	6.7	-1.92920E-001	-2.42806E-001	-2.17863E-001	4.50849E-009	-5.06169E-008	5.51253E-008	-2.43000E-001	3.43039E-004	6	..........a	-327.68
	68	6.9	-1.88838E-001	-2.38939E-001	-2.13889E-001	5.61530E-009	-4.86183E-008	5.42336E-008	-2.39000E-001	3.44873E-004	6	..........a	-327.68
	70	7.1	-1.84919E-001	-2.34843E-001	-2.09881E-001	6.82145E-009	-4.66040E-008	5.34255E-008	-2.35000E-001	3.47873E-004	6	..........a	-327.68
	72	7.3	-1.80812E-001	-2.30916E-001	-2.05864E-001	7.75557E-009	-4.50048E-008	5.27604E-008	-2.31000E-001	3.44539E-004	6	..........a	-327.68
	74	7.5	-1.76875E-001	-2.26844E-001	-2.01859E-001	8.56901E-009	-4.32566E-008	5.18256E-008	-2.27000E-001	3.44373E-004	6	..........a	-327.68
	76	7.7	-1.72877E-001	-2.22910E-001	-1.97893E-001	9.52846E-009	-4.15750E-008	5.11035E-008	-2.23000E-001	3.44706E-004	6	..........a	-327.68
	78	7.9	-1.68896E-001	-2.18887E-001	-1.93892E-001	1.05429E-008	-3.98222E-008	5.03651E-008	-2.19000E-001	3.29873E-004	6	..........a	-327.68
	80	8.1	-1.64745E-001	-2.14944E-001	-1.89844E-001	1.12790E-008	-3.85933E-008	4.98723E-008	-2.15000E-001	3.40206E-004	6	..........a	-327.68
	82	8.3	-1.60927E-001	-2.10877E-001	-1.85902E-001	1.22168E-008	-3.69845E-008	4.92013E-008	-2.11000E-001	3.43706E-004	6	..........a	-327.68
	84	8.5	-1.56838E-001	-2.06933E-001	-1.81885E-001	1.30692E-008	-3.56523E-008	4.87215E-008	-2.07000E-001	3.29873E-004	6	..........a	-327.68
	86	8.7	-1.52913E-001	-2.02851E-001	-1.77882E-001	1.37270E-008	-3.43688E-008	4.80958E-008	-2.03000E-001	3.30373E-004	6	..........a	-327.68
	88	8.9	-1.48847E-001	-1.98924E-001	-1.73885E-001	1.44294E-008	-3.33023E-008	4.77317E-008	-1.99000E-001	3.36039E-004	6	..........a	-327.68
	90	9.1	-1.44902E-001	-1.94880E-001	-1.69891E-001	1.52565E-008	-3.21538E-008	4.74104E-008	-1.95000E-001	3.53039E-004	6	..........a	-327.68
	92	9.3	-1.40901E-001	-1.90960E-001	-1.65931E-001	1.59789E-008	-3.11667E-008	4.71457E-008	-1.91000E-001	3.29706E-004	6	..........a	-327.68
	94	9.5	-1.36873E-001	-1.86871E-001	-1.61872E-001	1.66277E-008	-3.01433E-008	4.67709E-008	-1.87000E-001	3.34539E-004	6	..........a	-327.68
	96	9.7	-1.32837E-001	-1.82903E-001	-1.57870E-001	1.72434E-008	-2.92688E-008	4.65122E-008	-1.83000E-001	3.29206E-004	6	..........a	-327.68
	98	9.9	-1.28883E-001	-1.78850E-001	-1.53867E-001	1.77638E-008	-2.82693E-008	4.60332E-008	-1.79000E-001	3.45206E-004	6	..........a	-327.68
	100	10.1	-1.24893E-001	-1.74912E-001	-1.49902E-001	1.84979E-008	-2.76436E-008	4.61415E-008	-1.75000E-001	3.46873E-004	6	..........a	-327.68