Folder: EchemAnalysis_AMA/Sample Data/Concentration Curve Data/C-COM3 (part 11)

File: SWV_10Hz STD3 aptmch 081020_#9.DTA
EXPLAIN
TAG	SQUARE_WAVE
TITLE	LABEL	Square Wave Voltammetry	Test Identifier
DATE	LABEL	8/10/2020	Date
TIME	LABEL	13:18:06	Time
NOTES	NOTES	1	Notes...
	 STD3 aptmch 08102
PSTAT	PSTAT	REF600-24079	Potentiostat
VINIT	QUANT	-3.50000E-001	Initial E (V)
VFINAL	QUANT	-1.50000E-001	Final E (V)
STEPSIZE	QUANT	2.00000E+000	Step Size (mV)
TIMERRES	QUANT	3.33340E-005	&Timer Resolution
FREQUENCY	QUANT	1.00000E+001	Frequency (Hz)
PULSESIZE	QUANT	2.50000E+001	Pulse Size E (mV)
PULSEON	QUANT	1.00000E-001	Pulse &Time (s)
NOISEREJECT	TOGGLE	F	Noise Rejection
AREA	QUANT	2.00000E-002	Sample Area (cm^2)
IMODE	SELECTOR	1	I/E Range Mode
IRANGE	QUANT	1.00000E-003	Max Current (mA)
EQDELAY	IQUANT	10	Equil. Time (s)
IRCOMP	SELECTOR	0	IRComp
PFCOR	QUANT	5.00000E+001	PF Corr. (ohm)
CYCLES	IQUANT	101	C&ycles (#)
ELECTRODETYPE	SELECTOR	0	Electrode Type
STRIPPING	TOGGLE	F	Used for Stripping
POLARITY	TOGGLE	F	Signal Polarity
LINEFREQ	IQUANT	60	Line Frequency (Hz)
INTPERIOD	QUANT	3.3334E-005	Integration Period (s)
SEQUENCER	TOGGLE	TRUE	Run as Sequence
PSTATMODEL	IQUANT	4	Pstat Model
PSTATSECTION	LABEL	REF600-24079	Pstat Section
PSTATSERIALNO	LABEL	24079	Pstat Serial Number
CTRLMODE	IQUANT	1	Control Mode
ELECTROMETER	IQUANT	0	RE=0 or CS=1
IESTAB	IQUANT	2	I/E Stability
CASPEED	IQUANT	6	Control Amp Speed
CONVENTION	IQUANT	1	Current Convention
ICHRANGE	IQUANT	2	Ich Range
ICHRANGEMODE	TOGGLE	F	Ich Auto Range
ICHOFFSETENABLE	TOGGLE	F	Ich Offset Enable
ICHOFFSET	QUANT	0	Ich Offset (V)
ICHFILTER	IQUANT	2	Ich Filter
VCHRANGE	IQUANT	2	Vch Range
VCHRANGEMODE	TOGGLE	F	Vch Auto Range
VCHOFFSETENABLE	TOGGLE	F	Vch Offset Enable
VCHOFFSET	QUANT	0	Vch Offset (V)
VCHFILTER	IQUANT	2	Vch Filter
ACHRANGE	IQUANT	2	Ach Range
ACHOFFSETENABLE	TOGGLE	F	Ach Offset Enable
ACHOFFSET	QUANT	0	Ach Offset (V)
ACHFILTER	IQUANT	1	Ach Filter
IERANGELOWERLIMIT	IQUANT	1	I/E Range Lower Limit
IERANGEMODE	TOGGLE	F	I/E AutoRange
IERANGE	IQUANT	6	I/E Range
POSFEEDENABLE	TOGGLE	F	Positive Feedback IR Comp
POSFEEDRESISTANCE	QUANT	0	Positive Feedback Resistance (ohm)
ACHSELECT	IQUANT	0	Ach Select
SENSECABLEID	IQUANT	13	Sense Cable ID
PWRCABLEID	IQUANT	13	Power Cable ID
DCCALDATE	LABEL	6/30/2020	DC Calibration Date
ACCALDATE	LABEL	6/30/2020	AC Calibration Date
THERMOSELECT	IQUANT	1	Thermo Select
FRAMEWORKVERSION	LABEL	7.8.2	Framework Version
INSTRUMENTVERSION	LABEL	4.40	Instrument Version
CURVE	TABLE	101
	Pt	T	Vfwd	Vrev	Vstep	Ifwd	Irev	Idif	Sig	Ach	IERange	Over	Temp
	#	s	V	V	V	A	A	A	V	V	#	bits	deg C
	0	0.1	-3.24909E-001	-3.74907E-001	-3.49908E-001	-1.05278E-008	-4.14957E-008	3.09679E-008	-3.75000E-001	2.89873E-004	6	..........a	-327.68
	2	0.3	-3.20928E-001	-3.70824E-001	-3.45876E-001	4.31080E-009	-3.49682E-008	3.92790E-008	-3.71000E-001	2.48539E-004	6	..........a	-327.68
	4	0.5	-3.16827E-001	-3.66966E-001	-3.41896E-001	6.37906E-009	-3.30296E-008	3.94087E-008	-3.67000E-001	2.67706E-004	6	..........a	-327.68
	6	0.7	-3.12935E-001	-3.62866E-001	-3.37900E-001	7.29184E-009	-3.15334E-008	3.88253E-008	-3.63000E-001	2.57206E-004	6	..........a	-327.68
	8	0.9	-3.08822E-001	-3.58917E-001	-3.33869E-001	7.99127E-009	-3.05783E-008	3.85696E-008	-3.59000E-001	2.75873E-004	6	..........a	-327.68
	10	1.1	-3.04911E-001	-3.54873E-001	-3.29892E-001	8.76737E-009	-2.96002E-008	3.83675E-008	-3.55000E-001	2.49039E-004	6	..........a	-327.68
	12	1.3	-3.00894E-001	-3.50914E-001	-3.25904E-001	9.46179E-009	-2.86434E-008	3.81052E-008	-3.51000E-001	2.72539E-004	6	..........a	-327.68
	14	1.5	-2.96916E-001	-3.46888E-001	-3.21902E-001	1.02145E-008	-2.80276E-008	3.82422E-008	-3.47000E-001	2.70206E-004	6	..........a	-327.68
	16	1.7	-2.92752E-001	-3.42948E-001	-3.17850E-001	1.08516E-008	-2.74619E-008	3.83135E-008	-3.43000E-001	2.61539E-004	6	..........a	-327.68
	18	1.9	-2.88928E-001	-3.38877E-001	-3.13902E-001	1.13724E-008	-2.67148E-008	3.80872E-008	-3.39000E-001	2.65039E-004	6	..........a	-327.68
	20	2.1	-2.84853E-001	-3.34931E-001	-3.09892E-001	1.19541E-008	-2.62721E-008	3.82262E-008	-3.35000E-001	2.57873E-004	6	..........a	-327.68
	22	2.3	-2.80914E-001	-3.30846E-001	-3.05880E-001	1.24838E-008	-2.57804E-008	3.82642E-008	-3.31000E-001	2.85373E-004	6	..........a	-327.68
	24	2.5	-2.76890E-001	-3.26918E-001	-3.01904E-001	1.31546E-008	-2.54807E-008	3.86352E-008	-3.27000E-001	2.66706E-004	6	..........a	-327.68
	26	2.7	-2.72908E-001	-3.22896E-001	-2.97902E-001	1.39620E-008	-2.49856E-008	3.89476E-008	-3.23000E-001	2.66373E-004	6	..........a	-327.68
	28	2.9	-2.68910E-001	-3.18939E-001	-2.93925E-001	1.46638E-008	-2.49999E-008	3.96637E-008	-3.19000E-001	2.76539E-004	6	..........a	-327.68
	30	3.1	-2.64923E-001	-3.14911E-001	-2.89917E-001	1.51505E-008	-2.46682E-008	3.98187E-008	-3.15000E-001	2.58206E-004	6	..........a	-327.68
	32	3.3	-2.60798E-001	-3.10922E-001	-2.85860E-001	1.56589E-008	-2.43635E-008	4.00224E-008	-3.11000E-001	2.90539E-004	6	..........a	-327.68
	34	3.5	-2.56889E-001	-3.06878E-001	-2.81884E-001	1.61310E-008	-2.44852E-008	4.06162E-008	-3.07000E-001	2.65539E-004	6	..........a	-327.68
	36	3.7	-2.52871E-001	-3.02919E-001	-2.77895E-001	1.66097E-008	-2.44525E-008	4.10622E-008	-3.03000E-001	2.85373E-004	6	..........a	-327.68
	38	3.9	-2.48915E-001	-2.98892E-001	-2.73903E-001	1.70591E-008	-2.43022E-008	4.13613E-008	-2.99000E-001	2.60206E-004	6	..........a	-327.68
	40	4.1	-2.44902E-001	-2.94904E-001	-2.69903E-001	1.72118E-008	-2.41432E-008	4.13549E-008	-2.95000E-001	2.73539E-004	6	..........a	-327.68
	42	4.3	-2.40901E-001	-2.90848E-001	-2.65874E-001	1.74038E-008	-2.38675E-008	4.12712E-008	-2.91000E-001	2.72206E-004	6	..........a	-327.68
	44	4.5	-2.36890E-001	-2.86929E-001	-2.61909E-001	1.76368E-008	-2.36634E-008	4.13003E-008	-2.87000E-001	2.62039E-004	6	..........a	-327.68
	46	4.7	-2.32882E-001	-2.82850E-001	-2.57866E-001	1.74311E-008	-2.37474E-008	4.11786E-008	-2.83000E-001	2.82206E-004	6	..........a	-327.68
	48	4.9	-2.28851E-001	-2.78932E-001	-2.53891E-001	1.73908E-008	-2.30140E-008	4.04048E-008	-2.79000E-001	2.69873E-004	6	..........a	-327.68
	50	5.1	-2.24901E-001	-2.74886E-001	-2.49893E-001	1.75612E-008	-2.26856E-008	4.02468E-008	-2.75000E-001	2.81873E-004	6	..........a	-327.68
	52	5.3	-2.20902E-001	-2.70908E-001	-2.45905E-001	1.74038E-008	-2.22783E-008	3.96820E-008	-2.71000E-001	2.70373E-004	6	..........a	-327.68
	54	5.5	-2.16932E-001	-2.66837E-001	-2.41884E-001	1.76278E-008	-2.18809E-008	3.95087E-008	-2.67000E-001	2.75706E-004	6	..........a	-327.68
	56	5.7	-2.12868E-001	-2.62929E-001	-2.37899E-001	1.72971E-008	-2.12851E-008	3.85822E-008	-2.63000E-001	2.69206E-004	6	..........a	-327.68
	58	5.9	-2.08899E-001	-2.58871E-001	-2.33885E-001	1.72488E-008	-2.07164E-008	3.79652E-008	-2.59000E-001	2.62539E-004	6	..........a	-327.68
	60	6.1	-2.04854E-001	-2.54937E-001	-2.29896E-001	1.73745E-008	-2.01043E-008	3.74788E-008	-2.55000E-001	2.66706E-004	6	..........a	-327.68
	62	6.3	-2.00906E-001	-2.50883E-001	-2.25894E-001	1.73871E-008	-1.96973E-008	3.70844E-008	-2.51000E-001	2.56706E-004	6	..........a	-327.68
	64	6.5	-1.96888E-001	-2.46909E-001	-2.21899E-001	1.73875E-008	-1.89928E-008	3.63803E-008	-2.47000E-001	2.75206E-004	6	..........a	-327.68
	66	6.7	-1.92907E-001	-2.42840E-001	-2.17874E-001	1.73478E-008	-1.85921E-008	3.59399E-008	-2.43000E-001	2.77539E-004	6	..........a	-327.68
	68	6.9	-1.88794E-001	-2.38946E-001	-2.13870E-001	1.74488E-008	-1.82201E-008	3.56689E-008	-2.39000E-001	2.71039E-004	6	..........a	-327.68
	70	7.1	-1.84919E-001	-2.34848E-001	-2.09884E-001	1.74295E-008	-1.76430E-008	3.50725E-008	-2.35000E-001	2.78539E-004	6	..........a	-327.68
	72	7.3	-1.80851E-001	-2.30923E-001	-2.05887E-001	1.75595E-008	-1.73620E-008	3.49214E-008	-2.31000E-001	2.60373E-004	6	..........a	-327.68
	74	7.5	-1.76876E-001	-2.26862E-001	-2.01869E-001	1.75862E-008	-1.67932E-008	3.43794E-008	-2.27000E-001	2.81206E-004	6	..........a	-327.68
	76	7.7	-1.72893E-001	-2.22916E-001	-1.97904E-001	1.77078E-008	-1.66542E-008	3.43620E-008	-2.23000E-001	2.60373E-004	6	..........a	-327.68
	78	7.9	-1.68890E-001	-2.18892E-001	-1.93891E-001	1.77232E-008	-1.65262E-008	3.42494E-008	-2.19000E-001	2.86706E-004	6	..........a	-327.68
	80	8.1	-1.64759E-001	-2.14940E-001	-1.89849E-001	1.78935E-008	-1.61068E-008	3.40003E-008	-2.15000E-001	2.78873E-004	6	..........a	-327.68
	82	8.3	-1.60920E-001	-2.10895E-001	-1.85907E-001	1.80249E-008	-1.57368E-008	3.37616E-008	-2.11000E-001	2.95706E-004	6	..........a	-327.68
	84	8.5	-1.56868E-001	-2.06915E-001	-1.81891E-001	1.79935E-008	-1.54337E-008	3.34273E-008	-2.07000E-001	2.96873E-004	6	..........a	-327.68
	86	8.7	-1.52921E-001	-2.02868E-001	-1.77895E-001	1.81026E-008	-1.53140E-008	3.34166E-008	-2.03000E-001	2.77206E-004	6	..........a	-327.68
	88	8.9	-1.48894E-001	-1.98918E-001	-1.73906E-001	1.81469E-008	-1.49703E-008	3.31172E-008	-1.99000E-001	2.95706E-004	6	..........a	-327.68
	90	9.1	-1.44916E-001	-1.94889E-001	-1.69902E-001	1.85503E-008	-1.48446E-008	3.33949E-008	-1.95000E-001	2.65206E-004	6	..........a	-327.68
	92	9.3	-1.40906E-001	-1.90917E-001	-1.65911E-001	1.87613E-008	-1.46519E-008	3.34133E-008	-1.91000E-001	2.76373E-004	6	..........a	-327.68
	94	9.5	-1.36932E-001	-1.86853E-001	-1.61892E-001	1.89170E-008	-1.44923E-008	3.34093E-008	-1.87000E-001	2.70039E-004	6	..........a	-327.68
	96	9.7	-1.32853E-001	-1.82914E-001	-1.57884E-001	1.89943E-008	-1.44032E-008	3.33976E-008	-1.83000E-001	2.71206E-004	6	..........a	-327.68
	98	9.9	-1.28893E-001	-1.78846E-001	-1.53869E-001	1.90340E-008	-1.43279E-008	3.33619E-008	-1.79000E-001	2.82539E-004	6	..........a	-327.68
	100	10.1	-1.24890E-001	-1.74922E-001	-1.49906E-001	1.90253E-008	-1.40462E-008	3.30715E-008	-1.75000E-001	2.54873E-004	6	..........a	-327.68

File: SWV_10Hz STD3 aptmch 081020_#10.DTA
EXPLAIN
TAG	SQUARE_WAVE
TITLE	LABEL	Square Wave Voltammetry	Test Identifier
DATE	LABEL	8/10/2020	Date
TIME	LABEL	13:18:26	Time
NOTES	NOTES	1	Notes...
	 STD3 aptmch 08102
PSTAT	PSTAT	REF600-24079	Potentiostat
VINIT	QUANT	-3.50000E-001	Initial E (V)
VFINAL	QUANT	-1.50000E-001	Final E (V)
STEPSIZE	QUANT	2.00000E+000	Step Size (mV)
TIMERRES	QUANT	3.33340E-005	&Timer Resolution
FREQUENCY	QUANT	1.00000E+001	Frequency (Hz)
PULSESIZE	QUANT	2.50000E+001	Pulse Size E (mV)
PULSEON	QUANT	1.00000E-001	Pulse &Time (s)
NOISEREJECT	TOGGLE	F	Noise Rejection
AREA	QUANT	2.00000E-002	Sample Area (cm^2)
IMODE	SELECTOR	1	I/E Range Mode
IRANGE	QUANT	1.00000E-003	Max Current (mA)
EQDELAY	IQUANT	10	Equil. Time (s)
IRCOMP	SELECTOR	0	IRComp
PFCOR	QUANT	5.00000E+001	PF Corr. (ohm)
CYCLES	IQUANT	101	C&ycles (#)
ELECTRODETYPE	SELECTOR	0	Electrode Type
STRIPPING	TOGGLE	F	Used for Stripping
POLARITY	TOGGLE	F	Signal Polarity
LINEFREQ	IQUANT	60	Line Frequency (Hz)
INTPERIOD	QUANT	3.3334E-005	Integration Period (s)
SEQUENCER	TOGGLE	TRUE	Run as Sequence
PSTATMODEL	IQUANT	4	Pstat Model
PSTATSECTION	LABEL	REF600-24079	Pstat Section
PSTATSERIALNO	LABEL	24079	Pstat Serial Number
CTRLMODE	IQUANT	1	Control Mode
ELECTROMETER	IQUANT	0	RE=0 or CS=1
IESTAB	IQUANT	2	I/E Stability
CASPEED	IQUANT	6	Control Amp Speed
CONVENTION	IQUANT	1	Current Convention
ICHRANGE	IQUANT	2	Ich Range
ICHRANGEMODE	TOGGLE	F	Ich Auto Range
ICHOFFSETENABLE	TOGGLE	F	Ich Offset Enable
ICHOFFSET	QUANT	0	Ich Offset (V)
ICHFILTER	IQUANT	2	Ich Filter
VCHRANGE	IQUANT	2	Vch Range
VCHRANGEMODE	TOGGLE	F	Vch Auto Range
VCHOFFSETENABLE	TOGGLE	F	Vch Offset Enable
VCHOFFSET	QUANT	0	Vch Offset (V)
VCHFILTER	IQUANT	2	Vch Filter
ACHRANGE	IQUANT	2	Ach Range
ACHOFFSETENABLE	TOGGLE	F	Ach Offset Enable
ACHOFFSET	QUANT	0	Ach Offset (V)
ACHFILTER	IQUANT	1	Ach Filter
IERANGELOWERLIMIT	IQUANT	1	I/E Range Lower Limit
IERANGEMODE	TOGGLE	F	I/E AutoRange
IERANGE	IQUANT	6	I/E Range
POSFEEDENABLE	TOGGLE	F	Positive Feedback IR Comp
POSFEEDRESISTANCE	QUANT	0	Positive Feedback Resistance (ohm)
ACHSELECT	IQUANT	0	Ach Select
SENSECABLEID	IQUANT	13	Sense Cable ID
PWRCABLEID	IQUANT	13	Power Cable ID
DCCALDATE	LABEL	6/30/2020	DC Calibration Date
ACCALDATE	LABEL	6/30/2020	AC Calibration Date
THERMOSELECT	IQUANT	1	Thermo Select
FRAMEWORKVERSION	LABEL	7.8.2	Framework Version
INSTRUMENTVERSION	LABEL	4.40	Instrument Version
CURVE	TABLE	101
	Pt	T	Vfwd	Vrev	Vstep	Ifwd	Irev	Idif	Sig	Ach	IERange	Over	Temp
	#	s	V	V	V	A	A	A	V	V	#	bits	deg C
	0	0.1	-3.24827E-001	-3.74876E-001	-3.49851E-001	-1.12632E-008	-4.25338E-008	3.12706E-008	-3.75000E-001	3.88206E-004	6	..........a	-327.68
	2	0.3	-3.20886E-001	-3.70764E-001	-3.45825E-001	3.74339E-009	-3.55926E-008	3.93360E-008	-3.71000E-001	3.60039E-004	6	..........a	-327.68
	4	0.5	-3.16740E-001	-3.66910E-001	-3.41825E-001	5.41194E-009	-3.34770E-008	3.88889E-008	-3.67000E-001	3.58873E-004	6	..........a	-327.68
	6	0.7	-3.12884E-001	-3.62813E-001	-3.37849E-001	6.83212E-009	-3.21298E-008	3.89620E-008	-3.63000E-001	3.51039E-004	6	..........a	-327.68
	8	0.9	-3.08792E-001	-3.58868E-001	-3.33830E-001	7.29384E-009	-3.10077E-008	3.83015E-008	-3.59000E-001	3.67873E-004	6	..........a	-327.68
	10	1.1	-3.04860E-001	-3.54819E-001	-3.29839E-001	8.13895E-009	-3.04800E-008	3.86189E-008	-3.55000E-001	3.60706E-004	6	..........a	-327.68
	12	1.3	-3.00857E-001	-3.50868E-001	-3.25863E-001	8.91105E-009	-2.92345E-008	3.81455E-008	-3.51000E-001	3.53873E-004	6	..........a	-327.68
	14	1.5	-2.96871E-001	-3.46852E-001	-3.21861E-001	9.32810E-009	-2.85871E-008	3.79152E-008	-3.47000E-001	3.74206E-004	6	..........a	-327.68
	16	1.7	-2.92684E-001	-3.42893E-001	-3.17788E-001	9.82250E-009	-2.80080E-008	3.78305E-008	-3.43000E-001	3.67206E-004	6	..........a	-327.68
	18	1.9	-2.88894E-001	-3.38832E-001	-3.13863E-001	1.06196E-008	-2.73939E-008	3.80135E-008	-3.39000E-001	3.68873E-004	6	..........a	-327.68
	20	2.1	-2.84762E-001	-3.34878E-001	-3.09820E-001	1.12787E-008	-2.68905E-008	3.81692E-008	-3.35000E-001	3.74539E-004	6	..........a	-327.68
	22	2.3	-2.80865E-001	-3.30807E-001	-3.05836E-001	1.17951E-008	-2.63254E-008	3.81205E-008	-3.31000E-001	3.76039E-004	6	..........a	-327.68
	24	2.5	-2.76827E-001	-3.26876E-001	-3.01851E-001	1.26372E-008	-2.59137E-008	3.85509E-008	-3.27000E-001	3.64039E-004	6	..........a	-327.68
	26	2.7	-2.72865E-001	-3.22855E-001	-2.97860E-001	1.32093E-008	-2.58357E-008	3.90450E-008	-3.23000E-001	3.66373E-004	6	..........a	-327.68
	28	2.9	-2.68864E-001	-3.18921E-001	-2.93893E-001	1.39147E-008	-2.55327E-008	3.94474E-008	-3.19000E-001	3.74539E-004	6	..........a	-327.68
	30	3.1	-2.64869E-001	-3.14877E-001	-2.89873E-001	1.45574E-008	-2.53360E-008	3.98934E-008	-3.15000E-001	3.80039E-004	6	..........a	-327.68
	32	3.3	-2.60718E-001	-3.10876E-001	-2.85797E-001	1.50518E-008	-2.51429E-008	4.01948E-008	-3.11000E-001	3.75706E-004	6	..........a	-327.68
	34	3.5	-2.56839E-001	-3.06829E-001	-2.81834E-001	1.55406E-008	-2.49323E-008	4.04728E-008	-3.07000E-001	3.70873E-004	6	..........a	-327.68
	36	3.7	-2.52776E-001	-3.02890E-001	-2.77833E-001	1.59616E-008	-2.47892E-008	4.07509E-008	-3.03000E-001	3.65206E-004	6	..........a	-327.68
	38	3.9	-2.48872E-001	-2.98854E-001	-2.73863E-001	1.63470E-008	-2.47179E-008	4.10649E-008	-2.99000E-001	3.65039E-004	6	..........a	-327.68
	40	4.1	-2.44861E-001	-2.94871E-001	-2.69866E-001	1.65614E-008	-2.45912E-008	4.11526E-008	-2.95000E-001	3.63539E-004	6	..........a	-327.68
	42	4.3	-2.40850E-001	-2.90807E-001	-2.65828E-001	1.66280E-008	-2.46636E-008	4.12916E-008	-2.91000E-001	3.71539E-004	6	..........a	-327.68
	44	4.5	-2.36776E-001	-2.86869E-001	-2.61822E-001	1.70004E-008	-2.43578E-008	4.13583E-008	-2.87000E-001	3.55039E-004	6	..........a	-327.68
	46	4.7	-2.32830E-001	-2.82799E-001	-2.57814E-001	1.70551E-008	-2.39411E-008	4.09962E-008	-2.83000E-001	3.70206E-004	6	..........a	-327.68
	48	4.9	-2.28773E-001	-2.78856E-001	-2.53815E-001	1.69207E-008	-2.37778E-008	4.06985E-008	-2.79000E-001	3.70706E-004	6	..........a	-327.68
	50	5.1	-2.24850E-001	-2.74836E-001	-2.49843E-001	1.69474E-008	-2.30757E-008	4.00231E-008	-2.75000E-001	3.80706E-004	6	..........a	-327.68
	52	5.3	-2.20839E-001	-2.70866E-001	-2.45853E-001	1.69351E-008	-2.25833E-008	3.95184E-008	-2.71000E-001	3.77539E-004	6	..........a	-327.68
	54	5.5	-2.16834E-001	-2.66797E-001	-2.41816E-001	1.69314E-008	-2.21702E-008	3.91016E-008	-2.67000E-001	3.87206E-004	6	..........a	-327.68
	56	5.7	-2.12791E-001	-2.62885E-001	-2.37838E-001	1.70004E-008	-2.15948E-008	3.85952E-008	-2.63000E-001	3.74539E-004	6	..........a	-327.68
	58	5.9	-2.08850E-001	-2.58812E-001	-2.33831E-001	1.69961E-008	-2.11068E-008	3.81028E-008	-2.59000E-001	3.87706E-004	6	..........a	-327.68
	60	6.1	-2.04772E-001	-2.54895E-001	-2.29833E-001	1.70508E-008	-2.06140E-008	3.76648E-008	-2.55000E-001	3.75039E-004	6	..........a	-327.68
	62	6.3	-2.00847E-001	-2.50824E-001	-2.25836E-001	1.68131E-008	-1.98729E-008	3.66860E-008	-2.51000E-001	3.65873E-004	6	..........a	-327.68
	64	6.5	-1.96843E-001	-2.46861E-001	-2.21852E-001	1.69547E-008	-1.94736E-008	3.64283E-008	-2.47000E-001	3.69706E-004	6	..........a	-327.68
	66	6.7	-1.92873E-001	-2.42789E-001	-2.17831E-001	1.68644E-008	-1.88818E-008	3.57462E-008	-2.43000E-001	3.75706E-004	6	..........a	-327.68
	68	6.9	-1.88716E-001	-2.38883E-001	-2.13799E-001	1.73338E-008	-1.85564E-008	3.58902E-008	-2.39000E-001	3.72539E-004	6	..........a	-327.68
	70	7.1	-1.84867E-001	-2.34798E-001	-2.09833E-001	1.70441E-008	-1.81187E-008	3.51628E-008	-2.35000E-001	3.70539E-004	6	..........a	-327.68
	72	7.3	-1.80754E-001	-2.30854E-001	-2.05804E-001	1.71684E-008	-1.76783E-008	3.48468E-008	-2.31000E-001	3.71706E-004	6	..........a	-327.68
	74	7.5	-1.76807E-001	-2.26799E-001	-2.01803E-001	1.72668E-008	-1.73926E-008	3.46594E-008	-2.27000E-001	3.78039E-004	6	..........a	-327.68
	76	7.7	-1.72806E-001	-2.22863E-001	-1.97834E-001	1.72578E-008	-1.70793E-008	3.43370E-008	-2.23000E-001	3.72539E-004	6	..........a	-327.68
	78	7.9	-1.68854E-001	-2.18849E-001	-1.93851E-001	1.74525E-008	-1.66565E-008	3.41090E-008	-2.19000E-001	3.58873E-004	6	..........a	-327.68
	80	8.1	-1.64701E-001	-2.14872E-001	-1.89786E-001	1.75688E-008	-1.63765E-008	3.39453E-008	-2.15000E-001	3.72706E-004	6	..........a	-327.68
	82	8.3	-1.60879E-001	-2.10826E-001	-1.85852E-001	1.76532E-008	-1.60218E-008	3.36750E-008	-2.11000E-001	3.70539E-004	6	..........a	-327.68
	84	8.5	-1.56775E-001	-2.06863E-001	-1.81819E-001	1.80299E-008	-1.59221E-008	3.39520E-008	-2.07000E-001	3.73373E-004	6	..........a	-327.68
	86	8.7	-1.52857E-001	-2.02813E-001	-1.77835E-001	1.79669E-008	-1.57077E-008	3.36746E-008	-2.03000E-001	3.84373E-004	6	..........a	-327.68
	88	8.9	-1.48814E-001	-1.98865E-001	-1.73839E-001	1.81646E-008	-1.55347E-008	3.36993E-008	-1.99000E-001	3.73206E-004	6	..........a	-327.68
	90	9.1	-1.44860E-001	-1.94849E-001	-1.69854E-001	1.83139E-008	-1.52680E-008	3.35819E-008	-1.95000E-001	3.83373E-004	6	..........a	-327.68
	92	9.3	-1.40854E-001	-1.90892E-001	-1.65873E-001	1.85569E-008	-1.50967E-008	3.36536E-008	-1.91000E-001	3.87539E-004	6	..........a	-327.68
	94	9.5	-1.36840E-001	-1.86814E-001	-1.61827E-001	1.86296E-008	-1.48886E-008	3.35183E-008	-1.87000E-001	3.71373E-004	6	..........a	-327.68
	96	9.7	-1.32742E-001	-1.82855E-001	-1.57798E-001	1.88493E-008	-1.45116E-008	3.33609E-008	-1.83000E-001	3.70373E-004	6	..........a	-327.68
	98	9.9	-1.28839E-001	-1.78794E-001	-1.53816E-001	1.89410E-008	-1.44439E-008	3.33849E-008	-1.79000E-001	3.56039E-004	6	..........a	-327.68
	100	10.1	-1.24804E-001	-1.74856E-001	-1.49830E-001	1.90720E-008	-1.42676E-008	3.33396E-008	-1.75000E-001	3.85206E-004	6	..........a	-327.68