Folder: EchemAnalysis_AMA/Sample Data/Concentration Curve Data/C-COM3 (part 10)

File: SWV_10Hz STD3 aptmch 081020_#2.DTA
EXPLAIN
TAG	SQUARE_WAVE
TITLE	LABEL	Square Wave Voltammetry	Test Identifier
DATE	LABEL	8/10/2020	Date
TIME	LABEL	13:15:44	Time
NOTES	NOTES	1	Notes...
	 STD3 aptmch 08102
PSTAT	PSTAT	REF600-24079	Potentiostat
VINIT	QUANT	-3.50000E-001	Initial E (V)
VFINAL	QUANT	-1.50000E-001	Final E (V)
STEPSIZE	QUANT	2.00000E+000	Step Size (mV)
TIMERRES	QUANT	3.33340E-005	&Timer Resolution
FREQUENCY	QUANT	1.00000E+001	Frequency (Hz)
PULSESIZE	QUANT	2.50000E+001	Pulse Size E (mV)
PULSEON	QUANT	1.00000E-001	Pulse &Time (s)
NOISEREJECT	TOGGLE	F	Noise Rejection
AREA	QUANT	2.00000E-002	Sample Area (cm^2)
IMODE	SELECTOR	1	I/E Range Mode
IRANGE	QUANT	1.00000E-003	Max Current (mA)
EQDELAY	IQUANT	10	Equil. Time (s)
IRCOMP	SELECTOR	0	IRComp
PFCOR	QUANT	5.00000E+001	PF Corr. (ohm)
CYCLES	IQUANT	101	C&ycles (#)
ELECTRODETYPE	SELECTOR	0	Electrode Type
STRIPPING	TOGGLE	F	Used for Stripping
POLARITY	TOGGLE	F	Signal Polarity
LINEFREQ	IQUANT	60	Line Frequency (Hz)
INTPERIOD	QUANT	3.3334E-005	Integration Period (s)
SEQUENCER	TOGGLE	TRUE	Run as Sequence
PSTATMODEL	IQUANT	4	Pstat Model
PSTATSECTION	LABEL	REF600-24079	Pstat Section
PSTATSERIALNO	LABEL	24079	Pstat Serial Number
CTRLMODE	IQUANT	1	Control Mode
ELECTROMETER	IQUANT	0	RE=0 or CS=1
IESTAB	IQUANT	2	I/E Stability
CASPEED	IQUANT	6	Control Amp Speed
CONVENTION	IQUANT	1	Current Convention
ICHRANGE	IQUANT	2	Ich Range
ICHRANGEMODE	TOGGLE	F	Ich Auto Range
ICHOFFSETENABLE	TOGGLE	F	Ich Offset Enable
ICHOFFSET	QUANT	0	Ich Offset (V)
ICHFILTER	IQUANT	2	Ich Filter
VCHRANGE	IQUANT	2	Vch Range
VCHRANGEMODE	TOGGLE	F	Vch Auto Range
VCHOFFSETENABLE	TOGGLE	F	Vch Offset Enable
VCHOFFSET	QUANT	0	Vch Offset (V)
VCHFILTER	IQUANT	2	Vch Filter
ACHRANGE	IQUANT	2	Ach Range
ACHOFFSETENABLE	TOGGLE	F	Ach Offset Enable
ACHOFFSET	QUANT	0	Ach Offset (V)
ACHFILTER	IQUANT	1	Ach Filter
IERANGELOWERLIMIT	IQUANT	1	I/E Range Lower Limit
IERANGEMODE	TOGGLE	F	I/E AutoRange
IERANGE	IQUANT	6	I/E Range
POSFEEDENABLE	TOGGLE	F	Positive Feedback IR Comp
POSFEEDRESISTANCE	QUANT	0	Positive Feedback Resistance (ohm)
ACHSELECT	IQUANT	0	Ach Select
SENSECABLEID	IQUANT	13	Sense Cable ID
PWRCABLEID	IQUANT	13	Power Cable ID
DCCALDATE	LABEL	6/30/2020	DC Calibration Date
ACCALDATE	LABEL	6/30/2020	AC Calibration Date
THERMOSELECT	IQUANT	1	Thermo Select
FRAMEWORKVERSION	LABEL	7.8.2	Framework Version
INSTRUMENTVERSION	LABEL	4.40	Instrument Version
CURVE	TABLE	101
	Pt	T	Vfwd	Vrev	Vstep	Ifwd	Irev	Idif	Sig	Ach	IERange	Over	Temp
	#	s	V	V	V	A	A	A	V	V	#	bits	deg C
	0	0.1	-3.24825E-001	-3.74866E-001	-3.49846E-001	-1.39139E-008	-4.73528E-008	3.34389E-008	-3.75000E-001	4.28706E-004	6	..........a	-327.68
	2	0.3	-3.20833E-001	-3.70760E-001	-3.45797E-001	1.49277E-009	-4.02572E-008	4.17500E-008	-3.71000E-001	4.14373E-004	6	..........a	-327.68
	4	0.5	-3.16750E-001	-3.66879E-001	-3.41814E-001	3.45436E-009	-3.79932E-008	4.14476E-008	-3.67000E-001	4.12373E-004	6	..........a	-327.68
	6	0.7	-3.12676E-001	-3.62793E-001	-3.37735E-001	4.76752E-009	-3.64170E-008	4.11846E-008	-3.63000E-001	4.01873E-004	6	..........a	-327.68
	8	0.9	-3.08808E-001	-3.58833E-001	-3.33821E-001	5.57596E-009	-3.46918E-008	4.02678E-008	-3.59000E-001	4.13373E-004	6	..........a	-327.68
	10	1.1	-3.04800E-001	-3.54813E-001	-3.29806E-001	6.36073E-009	-3.38014E-008	4.01621E-008	-3.55000E-001	4.06039E-004	6	..........a	-327.68
	12	1.3	-3.00845E-001	-3.50857E-001	-3.25851E-001	7.11982E-009	-3.27996E-008	3.99194E-008	-3.51000E-001	3.98873E-004	6	..........a	-327.68
	14	1.5	-2.96860E-001	-3.46842E-001	-3.21851E-001	7.78591E-009	-3.19338E-008	3.97197E-008	-3.47000E-001	4.02873E-004	6	..........a	-327.68
	16	1.7	-2.92675E-001	-3.42816E-001	-3.17746E-001	8.55600E-009	-3.09794E-008	3.95354E-008	-3.43000E-001	4.08706E-004	6	..........a	-327.68
	18	1.9	-2.88676E-001	-3.38827E-001	-3.13751E-001	9.24909E-009	-3.04120E-008	3.96610E-008	-3.39000E-001	3.96373E-004	6	..........a	-327.68
	20	2.1	-2.84751E-001	-3.34847E-001	-3.09799E-001	9.99886E-009	-2.96985E-008	3.96974E-008	-3.35000E-001	4.06206E-004	6	..........a	-327.68
	22	2.3	-2.80797E-001	-3.30800E-001	-3.05798E-001	1.07756E-008	-2.90918E-008	3.98674E-008	-3.31000E-001	4.02873E-004	6	..........a	-327.68
	24	2.5	-2.76816E-001	-3.26861E-001	-3.01838E-001	1.16204E-008	-2.89498E-008	4.05702E-008	-3.27000E-001	4.07539E-004	6	..........a	-327.68
	26	2.7	-2.72838E-001	-3.22828E-001	-2.97833E-001	1.23962E-008	-2.84510E-008	4.08472E-008	-3.23000E-001	3.92873E-004	6	..........a	-327.68
	28	2.9	-2.68855E-001	-3.18836E-001	-2.93846E-001	1.29606E-008	-2.83010E-008	4.12616E-008	-3.19000E-001	4.09873E-004	6	..........a	-327.68
	30	3.1	-2.64653E-001	-3.14879E-001	-2.89766E-001	1.36863E-008	-2.77993E-008	4.14856E-008	-3.15000E-001	3.94039E-004	6	..........a	-327.68
	32	3.3	-2.60768E-001	-3.10850E-001	-2.85809E-001	1.44494E-008	-2.78023E-008	4.22517E-008	-3.11000E-001	3.98539E-004	6	..........a	-327.68
	34	3.5	-2.56783E-001	-3.06817E-001	-2.81800E-001	1.49505E-008	-2.76919E-008	4.26424E-008	-3.07000E-001	4.00039E-004	6	..........a	-327.68
	36	3.7	-2.52793E-001	-3.02872E-001	-2.77832E-001	1.56099E-008	-2.75399E-008	4.31498E-008	-3.03000E-001	4.08206E-004	6	..........a	-327.68
	38	3.9	-2.48826E-001	-2.98835E-001	-2.73831E-001	1.60380E-008	-2.76703E-008	4.37082E-008	-2.99000E-001	4.08039E-004	6	..........a	-327.68
	40	4.1	-2.44859E-001	-2.94864E-001	-2.69862E-001	1.60576E-008	-2.75463E-008	4.36039E-008	-2.95000E-001	3.95706E-004	6	..........a	-327.68
	42	4.3	-2.40628E-001	-2.90804E-001	-2.65716E-001	1.62233E-008	-2.73202E-008	4.35435E-008	-2.91000E-001	3.92539E-004	6	..........a	-327.68
	44	4.5	-2.36770E-001	-2.86834E-001	-2.61802E-001	1.62763E-008	-2.70815E-008	4.33579E-008	-2.87000E-001	3.98873E-004	6	..........a	-327.68
	46	4.7	-2.32754E-001	-2.82795E-001	-2.57775E-001	1.64803E-008	-2.68572E-008	4.33375E-008	-2.83000E-001	4.08039E-004	6	..........a	-327.68
	48	4.9	-2.28769E-001	-2.78849E-001	-2.53809E-001	1.63503E-008	-2.62614E-008	4.26118E-008	-2.79000E-001	4.01706E-004	6	..........a	-327.68
	50	5.1	-2.24803E-001	-2.74819E-001	-2.49811E-001	1.62467E-008	-2.59437E-008	4.21904E-008	-2.75000E-001	4.12873E-004	6	..........a	-327.68
	52	5.3	-2.20836E-001	-2.70860E-001	-2.45848E-001	1.61226E-008	-2.53580E-008	4.14806E-008	-2.71000E-001	4.16206E-004	6	..........a	-327.68
	54	5.5	-2.16635E-001	-2.66786E-001	-2.41711E-001	1.58973E-008	-2.47019E-008	4.05992E-008	-2.67000E-001	4.09873E-004	6	..........a	-327.68
	56	5.7	-2.12765E-001	-2.62887E-001	-2.37826E-001	1.58619E-008	-2.39201E-008	3.97821E-008	-2.63000E-001	4.09706E-004	6	..........a	-327.68
	58	5.9	-2.08707E-001	-2.58803E-001	-2.33755E-001	1.57526E-008	-2.34944E-008	3.92470E-008	-2.59000E-001	4.18206E-004	6	..........a	-327.68
	60	6.1	-2.04748E-001	-2.54865E-001	-2.29806E-001	1.57739E-008	-2.26080E-008	3.83819E-008	-2.55000E-001	4.12539E-004	6	..........a	-327.68
	62	6.3	-2.00806E-001	-2.50823E-001	-2.25815E-001	1.56059E-008	-2.20952E-008	3.77011E-008	-2.51000E-001	4.31373E-004	6	..........a	-327.68
	64	6.5	-1.96818E-001	-2.46858E-001	-2.21838E-001	1.56149E-008	-2.12481E-008	3.68630E-008	-2.47000E-001	4.21706E-004	6	..........a	-327.68
	66	6.7	-1.92842E-001	-2.42778E-001	-2.17810E-001	1.57823E-008	-2.08081E-008	3.65903E-008	-2.43000E-001	4.01373E-004	6	..........a	-327.68
	68	6.9	-1.88675E-001	-2.38872E-001	-2.13774E-001	1.56549E-008	-2.04220E-008	3.60769E-008	-2.39000E-001	4.12706E-004	6	..........a	-327.68
	70	7.1	-1.84683E-001	-2.34799E-001	-2.09741E-001	1.58536E-008	-1.96493E-008	3.55029E-008	-2.35000E-001	4.03039E-004	6	..........a	-327.68
	72	7.3	-1.80749E-001	-2.30850E-001	-2.05800E-001	1.57019E-008	-1.92079E-008	3.49098E-008	-2.31000E-001	4.07706E-004	6	..........a	-327.68
	74	7.5	-1.76790E-001	-2.26807E-001	-2.01799E-001	1.58649E-008	-1.89692E-008	3.48341E-008	-2.27000E-001	4.09039E-004	6	..........a	-327.68
	76	7.7	-1.72803E-001	-2.22834E-001	-1.97819E-001	1.58519E-008	-1.83137E-008	3.41657E-008	-2.23000E-001	4.10373E-004	6	..........a	-327.68
	78	7.9	-1.68821E-001	-2.18847E-001	-1.93834E-001	1.58639E-008	-1.81497E-008	3.40137E-008	-2.19000E-001	4.15873E-004	6	..........a	-327.68
	80	8.1	-1.64678E-001	-2.14820E-001	-1.89749E-001	1.60900E-008	-1.76790E-008	3.37690E-008	-2.15000E-001	4.11039E-004	6	..........a	-327.68
	82	8.3	-1.60661E-001	-2.10852E-001	-1.85757E-001	1.61876E-008	-1.74213E-008	3.36089E-008	-2.11000E-001	4.15206E-004	6	..........a	-327.68
	84	8.5	-1.56767E-001	-2.06848E-001	-1.81807E-001	1.63497E-008	-1.70789E-008	3.34286E-008	-2.07000E-001	4.10039E-004	6	..........a	-327.68
	86	8.7	-1.52772E-001	-2.02807E-001	-1.77790E-001	1.63840E-008	-1.70586E-008	3.34426E-008	-2.03000E-001	4.06706E-004	6	..........a	-327.68
	88	8.9	-1.48808E-001	-1.98868E-001	-1.73838E-001	1.64810E-008	-1.68362E-008	3.33172E-008	-1.99000E-001	4.12373E-004	6	..........a	-327.68
	90	9.1	-1.44805E-001	-1.94826E-001	-1.69816E-001	1.64560E-008	-1.63642E-008	3.28202E-008	-1.95000E-001	4.07039E-004	6	..........a	-327.68
	92	9.3	-1.40850E-001	-1.90835E-001	-1.65842E-001	1.65997E-008	-1.61688E-008	3.27685E-008	-1.91000E-001	4.13206E-004	6	..........a	-327.68
	94	9.5	-1.36633E-001	-1.86824E-001	-1.61728E-001	1.69301E-008	-1.60021E-008	3.29322E-008	-1.87000E-001	4.20039E-004	6	..........a	-327.68
	96	9.7	-1.32751E-001	-1.82821E-001	-1.57786E-001	1.68071E-008	-1.58181E-008	3.26252E-008	-1.83000E-001	4.27539E-004	6	..........a	-327.68
	98	9.9	-1.28750E-001	-1.78804E-001	-1.53777E-001	1.70854E-008	-1.55827E-008	3.26682E-008	-1.79000E-001	4.15206E-004	6	..........a	-327.68
	100	10.1	-1.24773E-001	-1.74842E-001	-1.49807E-001	1.70514E-008	-1.54961E-008	3.25475E-008	-1.75000E-001	4.24539E-004	6	..........a	-327.68

File: SWV_10Hz STD3 aptmch 081020_#6.DTA
EXPLAIN
TAG	SQUARE_WAVE
TITLE	LABEL	Square Wave Voltammetry	Test Identifier
DATE	LABEL	8/10/2020	Date
TIME	LABEL	13:17:05	Time
NOTES	NOTES	1	Notes...
	 STD3 aptmch 08102
PSTAT	PSTAT	REF600-24079	Potentiostat
VINIT	QUANT	-3.50000E-001	Initial E (V)
VFINAL	QUANT	-1.50000E-001	Final E (V)
STEPSIZE	QUANT	2.00000E+000	Step Size (mV)
TIMERRES	QUANT	3.33340E-005	&Timer Resolution
FREQUENCY	QUANT	1.00000E+001	Frequency (Hz)
PULSESIZE	QUANT	2.50000E+001	Pulse Size E (mV)
PULSEON	QUANT	1.00000E-001	Pulse &Time (s)
NOISEREJECT	TOGGLE	F	Noise Rejection
AREA	QUANT	2.00000E-002	Sample Area (cm^2)
IMODE	SELECTOR	1	I/E Range Mode
IRANGE	QUANT	1.00000E-003	Max Current (mA)
EQDELAY	IQUANT	10	Equil. Time (s)
IRCOMP	SELECTOR	0	IRComp
PFCOR	QUANT	5.00000E+001	PF Corr. (ohm)
CYCLES	IQUANT	101	C&ycles (#)
ELECTRODETYPE	SELECTOR	0	Electrode Type
STRIPPING	TOGGLE	F	Used for Stripping
POLARITY	TOGGLE	F	Signal Polarity
LINEFREQ	IQUANT	60	Line Frequency (Hz)
INTPERIOD	QUANT	3.3334E-005	Integration Period (s)
SEQUENCER	TOGGLE	TRUE	Run as Sequence
PSTATMODEL	IQUANT	4	Pstat Model
PSTATSECTION	LABEL	REF600-24079	Pstat Section
PSTATSERIALNO	LABEL	24079	Pstat Serial Number
CTRLMODE	IQUANT	1	Control Mode
ELECTROMETER	IQUANT	0	RE=0 or CS=1
IESTAB	IQUANT	2	I/E Stability
CASPEED	IQUANT	6	Control Amp Speed
CONVENTION	IQUANT	1	Current Convention
ICHRANGE	IQUANT	2	Ich Range
ICHRANGEMODE	TOGGLE	F	Ich Auto Range
ICHOFFSETENABLE	TOGGLE	F	Ich Offset Enable
ICHOFFSET	QUANT	0	Ich Offset (V)
ICHFILTER	IQUANT	2	Ich Filter
VCHRANGE	IQUANT	2	Vch Range
VCHRANGEMODE	TOGGLE	F	Vch Auto Range
VCHOFFSETENABLE	TOGGLE	F	Vch Offset Enable
VCHOFFSET	QUANT	0	Vch Offset (V)
VCHFILTER	IQUANT	2	Vch Filter
ACHRANGE	IQUANT	2	Ach Range
ACHOFFSETENABLE	TOGGLE	F	Ach Offset Enable
ACHOFFSET	QUANT	0	Ach Offset (V)
ACHFILTER	IQUANT	1	Ach Filter
IERANGELOWERLIMIT	IQUANT	1	I/E Range Lower Limit
IERANGEMODE	TOGGLE	F	I/E AutoRange
IERANGE	IQUANT	6	I/E Range
POSFEEDENABLE	TOGGLE	F	Positive Feedback IR Comp
POSFEEDRESISTANCE	QUANT	0	Positive Feedback Resistance (ohm)
ACHSELECT	IQUANT	0	Ach Select
SENSECABLEID	IQUANT	13	Sense Cable ID
PWRCABLEID	IQUANT	13	Power Cable ID
DCCALDATE	LABEL	6/30/2020	DC Calibration Date
ACCALDATE	LABEL	6/30/2020	AC Calibration Date
THERMOSELECT	IQUANT	1	Thermo Select
FRAMEWORKVERSION	LABEL	7.8.2	Framework Version
INSTRUMENTVERSION	LABEL	4.40	Instrument Version
CURVE	TABLE	101
	Pt	T	Vfwd	Vrev	Vstep	Ifwd	Irev	Idif	Sig	Ach	IERange	Over	Temp
	#	s	V	V	V	A	A	A	V	V	#	bits	deg C
	0	0.1	-3.24840E-001	-3.74881E-001	-3.49861E-001	-1.15959E-008	-4.29175E-008	3.13217E-008	-3.75000E-001	3.63039E-004	6	..........a	-327.68
	2	0.3	-3.20890E-001	-3.70783E-001	-3.45837E-001	3.37301E-009	-3.64774E-008	3.98504E-008	-3.71000E-001	3.56706E-004	6	..........a	-327.68
	4	0.5	-3.16782E-001	-3.66949E-001	-3.41866E-001	5.52962E-009	-3.40334E-008	3.95630E-008	-3.67000E-001	3.52539E-004	6	..........a	-327.68
	6	0.7	-3.12908E-001	-3.62822E-001	-3.37865E-001	6.49074E-009	-3.26172E-008	3.91080E-008	-3.63000E-001	3.44039E-004	6	..........a	-327.68
	8	0.9	-3.08808E-001	-3.58892E-001	-3.33850E-001	7.28584E-009	-3.14558E-008	3.87416E-008	-3.59000E-001	3.62539E-004	6	..........a	-327.68
	10	1.1	-3.04880E-001	-3.54841E-001	-3.29860E-001	7.92559E-009	-3.06747E-008	3.86002E-008	-3.55000E-001	3.54206E-004	6	..........a	-327.68
	12	1.3	-3.00875E-001	-3.50886E-001	-3.25880E-001	8.52300E-009	-2.97692E-008	3.82922E-008	-3.51000E-001	3.62039E-004	6	..........a	-327.68
	14	1.5	-2.96899E-001	-3.46868E-001	-3.21883E-001	9.19709E-009	-2.90471E-008	3.82442E-008	-3.47000E-001	3.52873E-004	6	..........a	-327.68
	16	1.7	-2.92725E-001	-3.42900E-001	-3.17812E-001	9.81683E-009	-2.82917E-008	3.81085E-008	-3.43000E-001	3.39373E-004	6	..........a	-327.68
	18	1.9	-2.88910E-001	-3.38855E-001	-3.13882E-001	1.04886E-008	-2.76453E-008	3.81338E-008	-3.39000E-001	3.58873E-004	6	..........a	-327.68
	20	2.1	-2.84783E-001	-3.34891E-001	-3.09837E-001	1.12934E-008	-2.72756E-008	3.85689E-008	-3.35000E-001	3.41539E-004	6	..........a	-327.68
	22	2.3	-2.80893E-001	-3.30825E-001	-3.05859E-001	1.16701E-008	-2.66185E-008	3.82885E-008	-3.31000E-001	3.58373E-004	6	..........a	-327.68
	24	2.5	-2.76850E-001	-3.26886E-001	-3.01868E-001	1.25472E-008	-2.63081E-008	3.88553E-008	-3.27000E-001	3.58539E-004	6	..........a	-327.68
	26	2.7	-2.72880E-001	-3.22853E-001	-2.97866E-001	1.31346E-008	-2.61214E-008	3.92560E-008	-3.23000E-001	3.49539E-004	6	..........a	-327.68
	28	2.9	-2.68873E-001	-3.18933E-001	-2.93903E-001	1.37693E-008	-2.58087E-008	3.95780E-008	-3.19000E-001	3.52039E-004	6	..........a	-327.68
	30	3.1	-2.64890E-001	-3.14891E-001	-2.89891E-001	1.44007E-008	-2.57844E-008	4.01851E-008	-3.15000E-001	3.46706E-004	6	..........a	-327.68
	32	3.3	-2.60724E-001	-3.10896E-001	-2.85810E-001	1.49828E-008	-2.54980E-008	4.04808E-008	-3.11000E-001	3.50706E-004	6	..........a	-327.68
	34	3.5	-2.56847E-001	-3.06845E-001	-2.81846E-001	1.54976E-008	-2.55007E-008	4.09982E-008	-3.07000E-001	3.51373E-004	6	..........a	-327.68
	36	3.7	-2.52827E-001	-3.02908E-001	-2.77868E-001	1.59926E-008	-2.53546E-008	4.13473E-008	-3.03000E-001	3.58706E-004	6	..........a	-327.68
	38	3.9	-2.48878E-001	-2.98856E-001	-2.73867E-001	1.61803E-008	-2.54917E-008	4.16720E-008	-2.99000E-001	3.65706E-004	6	..........a	-327.68
	40	4.1	-2.44876E-001	-2.94873E-001	-2.69874E-001	1.65357E-008	-2.52796E-008	4.18153E-008	-2.95000E-001	3.65706E-004	6	..........a	-327.68
	42	4.3	-2.40837E-001	-2.90826E-001	-2.65831E-001	1.66950E-008	-2.52536E-008	4.19487E-008	-2.91000E-001	3.33539E-004	6	..........a	-327.68
	44	4.5	-2.36812E-001	-2.86894E-001	-2.61853E-001	1.67474E-008	-2.49749E-008	4.17223E-008	-2.87000E-001	3.64206E-004	6	..........a	-327.68
	46	4.7	-2.32850E-001	-2.82829E-001	-2.57839E-001	1.68267E-008	-2.47066E-008	4.15333E-008	-2.83000E-001	3.49706E-004	6	..........a	-327.68
	48	4.9	-2.28795E-001	-2.78902E-001	-2.53848E-001	1.67737E-008	-2.44709E-008	4.12446E-008	-2.79000E-001	3.51873E-004	6	..........a	-327.68
	50	5.1	-2.24856E-001	-2.74855E-001	-2.49855E-001	1.66530E-008	-2.39368E-008	4.05898E-008	-2.75000E-001	3.56873E-004	6	..........a	-327.68
	52	5.3	-2.20857E-001	-2.70883E-001	-2.45870E-001	1.67114E-008	-2.33174E-008	4.00288E-008	-2.71000E-001	3.54206E-004	6	..........a	-327.68
	54	5.5	-2.16831E-001	-2.66813E-001	-2.41822E-001	1.66357E-008	-2.29227E-008	3.95584E-008	-2.67000E-001	3.71873E-004	6	..........a	-327.68
	56	5.7	-2.12818E-001	-2.62904E-001	-2.37861E-001	1.63703E-008	-2.23313E-008	3.87016E-008	-2.63000E-001	3.56873E-004	6	..........a	-327.68
	58	5.9	-2.08827E-001	-2.58831E-001	-2.33829E-001	1.63360E-008	-2.16445E-008	3.79805E-008	-2.59000E-001	3.62539E-004	6	..........a	-327.68
	60	6.1	-2.04800E-001	-2.54884E-001	-2.29842E-001	1.65043E-008	-2.13095E-008	3.78138E-008	-2.55000E-001	3.61539E-004	6	..........a	-327.68
	62	6.3	-2.00860E-001	-2.50850E-001	-2.25855E-001	1.63800E-008	-2.05764E-008	3.69564E-008	-2.51000E-001	3.60039E-004	6	..........a	-327.68
	64	6.5	-1.96858E-001	-2.46880E-001	-2.21869E-001	1.65820E-008	-2.03927E-008	3.69747E-008	-2.47000E-001	3.60539E-004	6	..........a	-327.68
	66	6.7	-1.92876E-001	-2.42804E-001	-2.17840E-001	1.64053E-008	-1.95242E-008	3.59296E-008	-2.43000E-001	3.55039E-004	6	..........a	-327.68
	68	6.9	-1.88752E-001	-2.38916E-001	-2.13834E-001	1.66074E-008	-1.92612E-008	3.58686E-008	-2.39000E-001	3.69373E-004	6	..........a	-327.68
	70	7.1	-1.84872E-001	-2.34820E-001	-2.09846E-001	1.64773E-008	-1.84994E-008	3.49768E-008	-2.35000E-001	3.49539E-004	6	..........a	-327.68
	72	7.3	-1.80779E-001	-2.30880E-001	-2.05829E-001	1.66247E-008	-1.82231E-008	3.48478E-008	-2.31000E-001	3.57206E-004	6	..........a	-327.68
	74	7.5	-1.76821E-001	-2.26816E-001	-2.01819E-001	1.66310E-008	-1.79750E-008	3.46061E-008	-2.27000E-001	3.65039E-004	6	..........a	-327.68
	76	7.7	-1.72834E-001	-2.22871E-001	-1.97853E-001	1.67210E-008	-1.74406E-008	3.41617E-008	-2.23000E-001	3.68873E-004	6	..........a	-327.68
	78	7.9	-1.68863E-001	-2.18861E-001	-1.93862E-001	1.68637E-008	-1.73286E-008	3.41924E-008	-2.19000E-001	3.57873E-004	6	..........a	-327.68
	80	8.1	-1.64710E-001	-2.14919E-001	-1.89815E-001	1.69154E-008	-1.70326E-008	3.39480E-008	-2.15000E-001	3.58039E-004	6	..........a	-327.68
	82	8.3	-1.60904E-001	-2.10865E-001	-1.85885E-001	1.69467E-008	-1.65732E-008	3.35199E-008	-2.11000E-001	3.55539E-004	6	..........a	-327.68
	84	8.5	-1.56790E-001	-2.06879E-001	-1.81835E-001	1.72508E-008	-1.65222E-008	3.37730E-008	-2.07000E-001	3.46039E-004	6	..........a	-327.68
	86	8.7	-1.52889E-001	-2.02828E-001	-1.77859E-001	1.72501E-008	-1.60545E-008	3.33046E-008	-2.03000E-001	3.64539E-004	6	..........a	-327.68
	88	8.9	-1.48842E-001	-1.98888E-001	-1.73865E-001	1.75708E-008	-1.60181E-008	3.35889E-008	-1.99000E-001	3.56873E-004	6	..........a	-327.68
	90	9.1	-1.44873E-001	-1.94852E-001	-1.69862E-001	1.73951E-008	-1.58284E-008	3.32236E-008	-1.95000E-001	3.63373E-004	6	..........a	-327.68
	92	9.3	-1.40865E-001	-1.90925E-001	-1.65895E-001	1.77192E-008	-1.57514E-008	3.34706E-008	-1.91000E-001	3.49206E-004	6	..........a	-327.68
	94	9.5	-1.36879E-001	-1.86838E-001	-1.61858E-001	1.76822E-008	-1.54230E-008	3.31052E-008	-1.87000E-001	3.54539E-004	6	..........a	-327.68
	96	9.7	-1.32782E-001	-1.82867E-001	-1.57824E-001	1.79269E-008	-1.52917E-008	3.32186E-008	-1.83000E-001	3.67706E-004	6	..........a	-327.68
	98	9.9	-1.28856E-001	-1.78827E-001	-1.53842E-001	1.80432E-008	-1.50557E-008	3.30989E-008	-1.79000E-001	3.54706E-004	6	..........a	-327.68
	100	10.1	-1.24825E-001	-1.74886E-001	-1.49855E-001	1.81299E-008	-1.50613E-008	3.31912E-008	-1.75000E-001	3.54039E-004	6	..........a	-327.68