Folder: EchemAnalysis_AMA/Sample Data/Concentration Curve Data/C-COM3 (part 3)

File: SWV_10Hz STD3 10  fgml 081020_#10.DTA
EXPLAIN
TAG	SQUARE_WAVE
TITLE	LABEL	Square Wave Voltammetry	Test Identifier
DATE	LABEL	8/10/2020	Date
TIME	LABEL	17:56:32	Time
NOTES	NOTES	1	Notes...
	 STD3, 10  fg/mL 08102
PSTAT	PSTAT	REF600-24079	Potentiostat
VINIT	QUANT	-3.50000E-001	Initial E (V)
VFINAL	QUANT	-1.50000E-001	Final E (V)
STEPSIZE	QUANT	2.00000E+000	Step Size (mV)
TIMERRES	QUANT	3.33340E-005	&Timer Resolution
FREQUENCY	QUANT	1.00000E+001	Frequency (Hz)
PULSESIZE	QUANT	2.50000E+001	Pulse Size E (mV)
PULSEON	QUANT	1.00000E-001	Pulse &Time (s)
NOISEREJECT	TOGGLE	F	Noise Rejection
AREA	QUANT	2.00000E-002	Sample Area (cm^2)
IMODE	SELECTOR	1	I/E Range Mode
IRANGE	QUANT	1.00000E-003	Max Current (mA)
EQDELAY	IQUANT	10	Equil. Time (s)
IRCOMP	SELECTOR	0	IRComp
PFCOR	QUANT	5.00000E+001	PF Corr. (ohm)
CYCLES	IQUANT	101	C&ycles (#)
ELECTRODETYPE	SELECTOR	0	Electrode Type
STRIPPING	TOGGLE	F	Used for Stripping
POLARITY	TOGGLE	F	Signal Polarity
LINEFREQ	IQUANT	60	Line Frequency (Hz)
INTPERIOD	QUANT	3.3334E-005	Integration Period (s)
SEQUENCER	TOGGLE	TRUE	Run as Sequence
PSTATMODEL	IQUANT	4	Pstat Model
PSTATSECTION	LABEL	REF600-24079	Pstat Section
PSTATSERIALNO	LABEL	24079	Pstat Serial Number
CTRLMODE	IQUANT	1	Control Mode
ELECTROMETER	IQUANT	0	RE=0 or CS=1
IESTAB	IQUANT	2	I/E Stability
CASPEED	IQUANT	6	Control Amp Speed
CONVENTION	IQUANT	1	Current Convention
ICHRANGE	IQUANT	2	Ich Range
ICHRANGEMODE	TOGGLE	F	Ich Auto Range
ICHOFFSETENABLE	TOGGLE	F	Ich Offset Enable
ICHOFFSET	QUANT	0	Ich Offset (V)
ICHFILTER	IQUANT	2	Ich Filter
VCHRANGE	IQUANT	2	Vch Range
VCHRANGEMODE	TOGGLE	F	Vch Auto Range
VCHOFFSETENABLE	TOGGLE	F	Vch Offset Enable
VCHOFFSET	QUANT	0	Vch Offset (V)
VCHFILTER	IQUANT	2	Vch Filter
ACHRANGE	IQUANT	2	Ach Range
ACHOFFSETENABLE	TOGGLE	F	Ach Offset Enable
ACHOFFSET	QUANT	0	Ach Offset (V)
ACHFILTER	IQUANT	1	Ach Filter
IERANGELOWERLIMIT	IQUANT	1	I/E Range Lower Limit
IERANGEMODE	TOGGLE	F	I/E AutoRange
IERANGE	IQUANT	6	I/E Range
POSFEEDENABLE	TOGGLE	F	Positive Feedback IR Comp
POSFEEDRESISTANCE	QUANT	0	Positive Feedback Resistance (ohm)
ACHSELECT	IQUANT	0	Ach Select
SENSECABLEID	IQUANT	13	Sense Cable ID
PWRCABLEID	IQUANT	13	Power Cable ID
DCCALDATE	LABEL	6/30/2020	DC Calibration Date
ACCALDATE	LABEL	6/30/2020	AC Calibration Date
THERMOSELECT	IQUANT	1	Thermo Select
FRAMEWORKVERSION	LABEL	7.8.2	Framework Version
INSTRUMENTVERSION	LABEL	4.40	Instrument Version
CURVE	TABLE	101
	Pt	T	Vfwd	Vrev	Vstep	Ifwd	Irev	Idif	Sig	Ach	IERange	Over	Temp
	#	s	V	V	V	A	A	A	V	V	#	bits	deg C
	0	0.1	-3.24875E-001	-3.74881E-001	-3.49878E-001	-8.18352E-008	-1.59080E-007	7.72448E-008	-3.75000E-001	4.23206E-004	6	..........a	-327.68
	2	0.3	-3.20862E-001	-3.70775E-001	-3.45818E-001	-6.41012E-008	-1.48798E-007	8.46968E-008	-3.71000E-001	4.24039E-004	6	..........a	-327.68
	4	0.5	-3.16803E-001	-3.66927E-001	-3.41865E-001	-5.98087E-008	-1.43009E-007	8.31999E-008	-3.67000E-001	4.13373E-004	6	..........a	-327.68
	6	0.7	-3.12895E-001	-3.62831E-001	-3.37863E-001	-5.62052E-008	-1.37570E-007	8.13644E-008	-3.63000E-001	4.16539E-004	6	..........a	-327.68
	8	0.9	-3.08876E-001	-3.58888E-001	-3.33882E-001	-5.30142E-008	-1.32635E-007	7.96208E-008	-3.59000E-001	4.27373E-004	6	..........a	-327.68
	10	1.1	-3.04915E-001	-3.54836E-001	-3.29875E-001	-4.98191E-008	-1.27625E-007	7.78056E-008	-3.55000E-001	4.24873E-004	6	..........a	-327.68
	12	1.3	-3.00895E-001	-3.50891E-001	-3.25893E-001	-4.68280E-008	-1.23144E-007	7.63164E-008	-3.51000E-001	4.19873E-004	6	..........a	-327.68
	14	1.5	-2.96896E-001	-3.46885E-001	-3.21890E-001	-4.38707E-008	-1.18654E-007	7.47835E-008	-3.47000E-001	4.29873E-004	6	..........a	-327.68
	16	1.7	-2.92760E-001	-3.42899E-001	-3.17829E-001	-4.08790E-008	-1.14409E-007	7.35300E-008	-3.43000E-001	4.27206E-004	6	..........a	-327.68
	18	1.9	-2.88932E-001	-3.38845E-001	-3.13888E-001	-3.79196E-008	-1.10086E-007	7.21665E-008	-3.39000E-001	4.15706E-004	6	..........a	-327.68
	20	2.1	-2.84808E-001	-3.34885E-001	-3.09847E-001	-3.51599E-008	-1.05913E-007	7.07527E-008	-3.35000E-001	4.24539E-004	6	..........a	-327.68
	22	2.3	-2.80926E-001	-3.30820E-001	-3.05873E-001	-3.23559E-008	-1.02267E-007	6.99116E-008	-3.31000E-001	4.10706E-004	6	..........a	-327.68
	24	2.5	-2.76882E-001	-3.26897E-001	-3.01890E-001	-2.96005E-008	-9.87913E-008	6.91908E-008	-3.27000E-001	4.24873E-004	6	..........a	-327.68
	26	2.7	-2.72897E-001	-3.22871E-001	-2.97884E-001	-2.72262E-008	-9.50779E-008	6.78516E-008	-3.23000E-001	4.23873E-004	6	..........a	-327.68
	28	2.9	-2.68886E-001	-3.18899E-001	-2.93892E-001	-2.44699E-008	-9.19551E-008	6.74853E-008	-3.19000E-001	4.20206E-004	6	..........a	-327.68
	30	3.1	-2.64938E-001	-3.14895E-001	-2.89916E-001	-2.21532E-008	-8.89544E-008	6.68012E-008	-3.15000E-001	4.23873E-004	6	..........a	-327.68
	32	3.3	-2.60857E-001	-3.10909E-001	-2.85883E-001	-1.97433E-008	-8.57597E-008	6.60164E-008	-3.11000E-001	4.15873E-004	6	..........a	-327.68
	34	3.5	-2.56895E-001	-3.06849E-001	-2.81872E-001	-1.74020E-008	-8.25312E-008	6.51293E-008	-3.07000E-001	4.26039E-004	6	..........a	-327.68
	36	3.7	-2.52863E-001	-3.02902E-001	-2.77882E-001	-1.52414E-008	-7.98922E-008	6.46509E-008	-3.03000E-001	4.25539E-004	6	..........a	-327.68
	38	3.9	-2.48896E-001	-2.98873E-001	-2.73885E-001	-1.33144E-008	-7.72376E-008	6.39231E-008	-2.99000E-001	4.36873E-004	6	..........a	-327.68
	40	4.1	-2.44878E-001	-2.94876E-001	-2.69877E-001	-1.14842E-008	-7.46482E-008	6.31640E-008	-2.95000E-001	4.37706E-004	6	..........a	-327.68
	42	4.3	-2.40927E-001	-2.90828E-001	-2.65877E-001	-9.56963E-009	-7.24280E-008	6.28583E-008	-2.91000E-001	4.46873E-004	6	..........a	-327.68
	44	4.5	-2.36847E-001	-2.86880E-001	-2.61864E-001	-7.92809E-009	-6.96473E-008	6.17192E-008	-2.87000E-001	4.42206E-004	6	..........a	-327.68
	46	4.7	-2.32872E-001	-2.82834E-001	-2.57853E-001	-6.49058E-009	-6.74817E-008	6.09911E-008	-2.83000E-001	4.28039E-004	6	..........a	-327.68
	48	4.9	-2.28843E-001	-2.78894E-001	-2.53868E-001	-4.87337E-009	-6.50760E-008	6.02027E-008	-2.79000E-001	4.23373E-004	6	..........a	-327.68
	50	5.1	-2.24883E-001	-2.74842E-001	-2.49863E-001	-3.44485E-009	-6.27014E-008	5.92565E-008	-2.75000E-001	4.20039E-004	6	..........a	-327.68
	52	5.3	-2.20882E-001	-2.70863E-001	-2.45872E-001	-2.31338E-009	-6.06735E-008	5.83601E-008	-2.71000E-001	4.32206E-004	6	..........a	-327.68
	54	5.5	-2.16937E-001	-2.66800E-001	-2.41868E-001	-9.89543E-010	-5.84389E-008	5.74493E-008	-2.67000E-001	4.09873E-004	6	..........a	-327.68
	56	5.7	-2.12885E-001	-2.62878E-001	-2.37882E-001	3.51295E-010	-5.63506E-008	5.67019E-008	-2.63000E-001	4.16539E-004	6	..........a	-327.68
	58	5.9	-2.08885E-001	-2.58828E-001	-2.33856E-001	1.27275E-009	-5.41940E-008	5.54667E-008	-2.59000E-001	4.17373E-004	6	..........a	-327.68
	60	6.1	-2.04855E-001	-2.54898E-001	-2.29876E-001	2.32021E-009	-5.22944E-008	5.46146E-008	-2.55000E-001	4.11706E-004	6	..........a	-327.68
	62	6.3	-2.00884E-001	-2.50851E-001	-2.25868E-001	3.20766E-009	-5.04358E-008	5.36435E-008	-2.51000E-001	3.92706E-004	6	..........a	-327.68
	64	6.5	-1.96890E-001	-2.46882E-001	-2.21886E-001	4.11944E-009	-4.86836E-008	5.28031E-008	-2.47000E-001	4.14873E-004	6	..........a	-327.68
	66	6.7	-1.92900E-001	-2.42799E-001	-2.17849E-001	5.08623E-009	-4.69867E-008	5.20730E-008	-2.43000E-001	4.02873E-004	6	..........a	-327.68
	68	6.9	-1.88796E-001	-2.38906E-001	-2.13851E-001	6.00535E-009	-4.51598E-008	5.11652E-008	-2.39000E-001	4.06873E-004	6	..........a	-327.68
	70	7.1	-1.84919E-001	-2.34829E-001	-2.09874E-001	6.85712E-009	-4.34399E-008	5.02971E-008	-2.35000E-001	3.98373E-004	6	..........a	-327.68
	72	7.3	-1.80821E-001	-2.30879E-001	-2.05850E-001	7.70223E-009	-4.19201E-008	4.96223E-008	-2.31000E-001	3.96706E-004	6	..........a	-327.68
	74	7.5	-1.76874E-001	-2.26831E-001	-2.01852E-001	8.63802E-009	-4.04449E-008	4.90829E-008	-2.27000E-001	4.02706E-004	6	..........a	-327.68
	76	7.7	-1.72862E-001	-2.22874E-001	-1.97868E-001	9.59047E-009	-3.91277E-008	4.87182E-008	-2.23000E-001	4.00873E-004	6	..........a	-327.68
	78	7.9	-1.68882E-001	-2.18873E-001	-1.93877E-001	1.03116E-008	-3.79049E-008	4.82165E-008	-2.19000E-001	4.04539E-004	6	..........a	-327.68
	80	8.1	-1.64746E-001	-2.14932E-001	-1.89839E-001	1.10890E-008	-3.64627E-008	4.75517E-008	-2.15000E-001	3.98539E-004	6	..........a	-327.68
	82	8.3	-1.60920E-001	-2.10867E-001	-1.85893E-001	1.17891E-008	-3.51182E-008	4.69073E-008	-2.11000E-001	4.07373E-004	6	..........a	-327.68
	84	8.5	-1.56825E-001	-2.06901E-001	-1.81863E-001	1.25085E-008	-3.40781E-008	4.65866E-008	-2.07000E-001	3.96539E-004	6	..........a	-327.68
	86	8.7	-1.52896E-001	-2.02829E-001	-1.77863E-001	1.32616E-008	-3.28926E-008	4.61542E-008	-2.03000E-001	4.07539E-004	6	..........a	-327.68
	88	8.9	-1.48874E-001	-1.98901E-001	-1.73888E-001	1.42264E-008	-3.19962E-008	4.62225E-008	-1.99000E-001	4.03206E-004	6	..........a	-327.68
	90	9.1	-1.44887E-001	-1.94876E-001	-1.69881E-001	1.46201E-008	-3.13357E-008	4.59558E-008	-1.95000E-001	3.99539E-004	6	..........a	-327.68
	92	9.3	-1.40881E-001	-1.90913E-001	-1.65897E-001	1.53582E-008	-3.01849E-008	4.55431E-008	-1.91000E-001	3.88706E-004	6	..........a	-327.68
	94	9.5	-1.36904E-001	-1.86846E-001	-1.61875E-001	1.61460E-008	-2.93051E-008	4.54511E-008	-1.87000E-001	3.96373E-004	6	..........a	-327.68
	96	9.7	-1.32801E-001	-1.82882E-001	-1.57841E-001	1.66637E-008	-2.83220E-008	4.49857E-008	-1.83000E-001	3.92706E-004	6	..........a	-327.68
	98	9.9	-1.28848E-001	-1.78823E-001	-1.53835E-001	1.73381E-008	-2.76689E-008	4.50071E-008	-1.79000E-001	3.88206E-004	6	..........a	-327.68
	100	10.1	-1.24841E-001	-1.74890E-001	-1.49866E-001	1.79619E-008	-2.69979E-008	4.49597E-008	-1.75000E-001	4.04539E-004	6	..........a	-327.68

File: SWV_10Hz STD3 50  fgml 081020_#2.DTA
EXPLAIN
TAG	SQUARE_WAVE
TITLE	LABEL	Square Wave Voltammetry	Test Identifier
DATE	LABEL	8/10/2020	Date
TIME	LABEL	19:12:10	Time
NOTES	NOTES	1	Notes...
	 STD3 50  fg/mL 08102
PSTAT	PSTAT	REF600-24079	Potentiostat
VINIT	QUANT	-3.50000E-001	Initial E (V)
VFINAL	QUANT	-1.50000E-001	Final E (V)
STEPSIZE	QUANT	2.00000E+000	Step Size (mV)
TIMERRES	QUANT	3.33340E-005	&Timer Resolution
FREQUENCY	QUANT	1.00000E+001	Frequency (Hz)
PULSESIZE	QUANT	2.50000E+001	Pulse Size E (mV)
PULSEON	QUANT	1.00000E-001	Pulse &Time (s)
NOISEREJECT	TOGGLE	F	Noise Rejection
AREA	QUANT	2.00000E-002	Sample Area (cm^2)
IMODE	SELECTOR	1	I/E Range Mode
IRANGE	QUANT	1.00000E-003	Max Current (mA)
EQDELAY	IQUANT	10	Equil. Time (s)
IRCOMP	SELECTOR	0	IRComp
PFCOR	QUANT	5.00000E+001	PF Corr. (ohm)
CYCLES	IQUANT	101	C&ycles (#)
ELECTRODETYPE	SELECTOR	0	Electrode Type
STRIPPING	TOGGLE	F	Used for Stripping
POLARITY	TOGGLE	F	Signal Polarity
LINEFREQ	IQUANT	60	Line Frequency (Hz)
INTPERIOD	QUANT	3.3334E-005	Integration Period (s)
SEQUENCER	TOGGLE	TRUE	Run as Sequence
PSTATMODEL	IQUANT	4	Pstat Model
PSTATSECTION	LABEL	REF600-24079	Pstat Section
PSTATSERIALNO	LABEL	24079	Pstat Serial Number
CTRLMODE	IQUANT	1	Control Mode
ELECTROMETER	IQUANT	0	RE=0 or CS=1
IESTAB	IQUANT	2	I/E Stability
CASPEED	IQUANT	6	Control Amp Speed
CONVENTION	IQUANT	1	Current Convention
ICHRANGE	IQUANT	2	Ich Range
ICHRANGEMODE	TOGGLE	F	Ich Auto Range
ICHOFFSETENABLE	TOGGLE	F	Ich Offset Enable
ICHOFFSET	QUANT	0	Ich Offset (V)
ICHFILTER	IQUANT	2	Ich Filter
VCHRANGE	IQUANT	2	Vch Range
VCHRANGEMODE	TOGGLE	F	Vch Auto Range
VCHOFFSETENABLE	TOGGLE	F	Vch Offset Enable
VCHOFFSET	QUANT	0	Vch Offset (V)
VCHFILTER	IQUANT	2	Vch Filter
ACHRANGE	IQUANT	2	Ach Range
ACHOFFSETENABLE	TOGGLE	F	Ach Offset Enable
ACHOFFSET	QUANT	0	Ach Offset (V)
ACHFILTER	IQUANT	1	Ach Filter
IERANGELOWERLIMIT	IQUANT	1	I/E Range Lower Limit
IERANGEMODE	TOGGLE	F	I/E AutoRange
IERANGE	IQUANT	6	I/E Range
POSFEEDENABLE	TOGGLE	F	Positive Feedback IR Comp
POSFEEDRESISTANCE	QUANT	0	Positive Feedback Resistance (ohm)
ACHSELECT	IQUANT	0	Ach Select
SENSECABLEID	IQUANT	13	Sense Cable ID
PWRCABLEID	IQUANT	13	Power Cable ID
DCCALDATE	LABEL	6/30/2020	DC Calibration Date
ACCALDATE	LABEL	6/30/2020	AC Calibration Date
THERMOSELECT	IQUANT	1	Thermo Select
FRAMEWORKVERSION	LABEL	7.8.2	Framework Version
INSTRUMENTVERSION	LABEL	4.40	Instrument Version
CURVE	TABLE	101
	Pt	T	Vfwd	Vrev	Vstep	Ifwd	Irev	Idif	Sig	Ach	IERange	Over	Temp
	#	s	V	V	V	A	A	A	V	V	#	bits	deg C
	0	0.1	-3.24933E-001	-3.74912E-001	-3.49922E-001	-1.11678E-007	-2.21103E-007	1.09424E-007	-3.75000E-001	3.92373E-004	6	..........a	-327.68
	2	0.3	-3.20928E-001	-3.70789E-001	-3.45858E-001	-9.25829E-008	-2.06999E-007	1.14416E-007	-3.71000E-001	3.80039E-004	6	..........a	-327.68
	4	0.5	-3.16830E-001	-3.66946E-001	-3.41888E-001	-8.65701E-008	-1.97648E-007	1.11077E-007	-3.67000E-001	3.67873E-004	6	..........a	-327.68
	6	0.7	-3.12928E-001	-3.62843E-001	-3.37886E-001	-8.11534E-008	-1.89272E-007	1.08118E-007	-3.63000E-001	3.56039E-004	6	..........a	-327.68
	8	0.9	-3.08908E-001	-3.58918E-001	-3.33913E-001	-7.64285E-008	-1.81123E-007	1.04694E-007	-3.59000E-001	3.80873E-004	6	..........a	-327.68
	10	1.1	-3.04962E-001	-3.54862E-001	-3.29912E-001	-7.18482E-008	-1.73501E-007	1.01653E-007	-3.55000E-001	3.87373E-004	6	..........a	-327.68
	12	1.3	-3.00938E-001	-3.50915E-001	-3.25926E-001	-6.72503E-008	-1.66062E-007	9.88112E-008	-3.51000E-001	3.74539E-004	6	..........a	-327.68
	14	1.5	-2.96921E-001	-3.46899E-001	-3.21910E-001	-6.27631E-008	-1.58678E-007	9.59145E-008	-3.47000E-001	3.92706E-004	6	..........a	-327.68
	16	1.7	-2.92829E-001	-3.42926E-001	-3.17877E-001	-5.86792E-008	-1.52335E-007	9.36559E-008	-3.43000E-001	3.78873E-004	6	..........a	-327.68
	18	1.9	-2.88936E-001	-3.38849E-001	-3.13893E-001	-5.46090E-008	-1.45962E-007	9.13530E-008	-3.39000E-001	3.84039E-004	6	..........a	-327.68
	20	2.1	-2.84912E-001	-3.34922E-001	-3.09917E-001	-5.07289E-008	-1.39721E-007	8.89923E-008	-3.35000E-001	3.82039E-004	6	..........a	-327.68
	22	2.3	-2.80965E-001	-3.30844E-001	-3.05904E-001	-4.70541E-008	-1.33983E-007	8.69287E-008	-3.31000E-001	3.73539E-004	6	..........a	-327.68
	24	2.5	-2.76906E-001	-3.26926E-001	-3.01916E-001	-4.35283E-008	-1.28270E-007	8.47418E-008	-3.27000E-001	3.85206E-004	6	..........a	-327.68
	26	2.7	-2.72920E-001	-3.22888E-001	-2.97904E-001	-4.00638E-008	-1.22798E-007	8.27342E-008	-3.23000E-001	3.86206E-004	6	..........a	-327.68
	28	2.9	-2.68928E-001	-3.18916E-001	-2.93922E-001	-3.64027E-008	-1.17992E-007	8.15894E-008	-3.19000E-001	3.79373E-004	6	..........a	-327.68
	30	3.1	-2.64955E-001	-3.14892E-001	-2.89924E-001	-3.32106E-008	-1.13036E-007	7.98258E-008	-3.15000E-001	3.75873E-004	6	..........a	-327.68
	32	3.3	-2.60873E-001	-3.10895E-001	-2.85884E-001	-3.00742E-008	-1.08522E-007	7.84473E-008	-3.11000E-001	3.64539E-004	6	..........a	-327.68
	34	3.5	-2.56909E-001	-3.06848E-001	-2.81879E-001	-2.71205E-008	-1.03765E-007	7.66447E-008	-3.07000E-001	3.70539E-004	6	..........a	-327.68
	36	3.7	-2.52945E-001	-3.02942E-001	-2.77944E-001	-2.42812E-008	-9.99205E-008	7.56393E-008	-3.03000E-001	3.70873E-004	6	..........a	-327.68
	38	3.9	-2.48932E-001	-2.98889E-001	-2.73910E-001	-2.15482E-008	-9.59633E-008	7.44151E-008	-2.99000E-001	3.73873E-004	6	..........a	-327.68
	40	4.1	-2.44928E-001	-2.94936E-001	-2.69932E-001	-1.88405E-008	-9.21631E-008	7.33227E-008	-2.95000E-001	3.88706E-004	6	..........a	-327.68
	42	4.3	-2.40964E-001	-2.90826E-001	-2.65895E-001	-1.67122E-008	-8.85493E-008	7.18371E-008	-2.91000E-001	3.78706E-004	6	..........a	-327.68
	44	4.5	-2.36898E-001	-2.86916E-001	-2.61907E-001	-1.43052E-008	-8.49822E-008	7.06770E-008	-2.87000E-001	3.78539E-004	6	..........a	-327.68
	46	4.7	-2.32901E-001	-2.82844E-001	-2.57872E-001	-1.23693E-008	-8.17402E-008	6.93708E-008	-2.83000E-001	3.85706E-004	6	..........a	-327.68
	48	4.9	-2.28867E-001	-2.78912E-001	-2.53890E-001	-1.04221E-008	-7.83134E-008	6.78913E-008	-2.79000E-001	3.91206E-004	6	..........a	-327.68
	50	5.1	-2.24921E-001	-2.74881E-001	-2.49901E-001	-8.62818E-009	-7.53357E-008	6.67075E-008	-2.75000E-001	3.75206E-004	6	..........a	-327.68
	52	5.3	-2.20913E-001	-2.70908E-001	-2.45911E-001	-6.76028E-009	-7.23606E-008	6.56003E-008	-2.71000E-001	4.00706E-004	6	..........a	-327.68
	54	5.5	-2.16952E-001	-2.66796E-001	-2.41874E-001	-5.14540E-009	-6.93502E-008	6.42048E-008	-2.67000E-001	4.01039E-004	6	..........a	-327.68
	56	5.7	-2.12919E-001	-2.62902E-001	-2.37910E-001	-3.69822E-009	-6.63869E-008	6.26886E-008	-2.63000E-001	3.90373E-004	6	..........a	-327.68
	58	5.9	-2.08895E-001	-2.58830E-001	-2.33862E-001	-2.24204E-009	-6.40932E-008	6.18512E-008	-2.59000E-001	3.99873E-004	6	..........a	-327.68
	60	6.1	-2.04886E-001	-2.54912E-001	-2.29899E-001	-6.49833E-010	-6.11665E-008	6.05167E-008	-2.55000E-001	3.92039E-004	6	..........a	-327.68
	62	6.3	-2.00921E-001	-2.50875E-001	-2.25898E-001	5.30984E-010	-5.89019E-008	5.94329E-008	-2.51000E-001	3.91039E-004	6	..........a	-327.68
	64	6.5	-1.96937E-001	-2.46886E-001	-2.21911E-001	1.79415E-009	-5.62736E-008	5.80677E-008	-2.47000E-001	3.77873E-004	6	..........a	-327.68
	66	6.7	-1.92930E-001	-2.42792E-001	-2.17861E-001	2.78594E-009	-5.39873E-008	5.67732E-008	-2.43000E-001	3.72373E-004	6	..........a	-327.68
	68	6.9	-1.88862E-001	-2.38898E-001	-2.13880E-001	3.82274E-009	-5.18697E-008	5.56924E-008	-2.39000E-001	3.69706E-004	6	..........a	-327.68
	70	7.1	-1.84935E-001	-2.34818E-001	-2.09876E-001	5.03356E-009	-5.00114E-008	5.50450E-008	-2.35000E-001	3.59039E-004	6	..........a	-327.68
	72	7.3	-1.80897E-001	-2.30910E-001	-2.05903E-001	5.97734E-009	-4.81522E-008	5.41296E-008	-2.31000E-001	3.52706E-004	6	..........a	-327.68
	74	7.5	-1.76907E-001	-2.26852E-001	-2.01879E-001	6.88946E-009	-4.63983E-008	5.32878E-008	-2.27000E-001	3.58706E-004	6	..........a	-327.68
	76	7.7	-1.72920E-001	-2.22901E-001	-1.97910E-001	7.95560E-009	-4.45321E-008	5.24877E-008	-2.23000E-001	3.57706E-004	6	..........a	-327.68
	78	7.9	-1.68920E-001	-2.18898E-001	-1.93909E-001	8.74770E-009	-4.28585E-008	5.16062E-008	-2.19000E-001	3.66206E-004	6	..........a	-327.68
	80	8.1	-1.64755E-001	-2.14903E-001	-1.89829E-001	9.67882E-009	-4.15894E-008	5.12682E-008	-2.15000E-001	3.57539E-004	6	..........a	-327.68
	82	8.3	-1.60944E-001	-2.10850E-001	-1.85897E-001	1.04772E-008	-4.01169E-008	5.05941E-008	-2.11000E-001	3.58039E-004	6	..........a	-327.68
	84	8.5	-1.56863E-001	-2.06928E-001	-1.81896E-001	1.13657E-008	-3.85657E-008	4.99314E-008	-2.07000E-001	3.33539E-004	6	..........a	-327.68
	86	8.7	-1.52954E-001	-2.02847E-001	-1.77900E-001	1.22481E-008	-3.72822E-008	4.95303E-008	-2.03000E-001	3.47539E-004	6	..........a	-327.68
	88	8.9	-1.48915E-001	-1.98934E-001	-1.73925E-001	1.29836E-008	-3.61000E-008	4.90836E-008	-1.99000E-001	3.49706E-004	6	..........a	-327.68
	90	9.1	-1.44925E-001	-1.94896E-001	-1.69910E-001	1.38147E-008	-3.49982E-008	4.88129E-008	-1.95000E-001	3.47873E-004	6	..........a	-327.68
	92	9.3	-1.40921E-001	-1.90916E-001	-1.65919E-001	1.45141E-008	-3.39904E-008	4.85045E-008	-1.91000E-001	3.50039E-004	6	..........a	-327.68
	94	9.5	-1.36929E-001	-1.86843E-001	-1.61886E-001	1.52115E-008	-3.26509E-008	4.78624E-008	-1.87000E-001	3.46039E-004	6	..........a	-327.68
	96	9.7	-1.32801E-001	-1.82912E-001	-1.57857E-001	1.59419E-008	-3.18008E-008	4.77427E-008	-1.83000E-001	3.64873E-004	6	..........a	-327.68
	98	9.9	-1.28880E-001	-1.78828E-001	-1.53854E-001	1.65847E-008	-3.09957E-008	4.75804E-008	-1.79000E-001	3.46706E-004	6	..........a	-327.68
	100	10.1	-1.24894E-001	-1.74923E-001	-1.49909E-001	1.70011E-008	-3.03386E-008	4.73397E-008	-1.75000E-001	3.49706E-004	6	..........a	-327.68