Folder: EchemAnalysis_AMA/Sample Data/Concentration Curve Data/C-COM1 (part 6)

File: SWV_10Hz STD1 50  fgml 081020_#10.DTA
EXPLAIN
TAG	SQUARE_WAVE
TITLE	LABEL	Square Wave Voltammetry	Test Identifier
DATE	LABEL	8/10/2020	Date
TIME	LABEL	19:01:51	Time
NOTES	NOTES	1	Notes...
	 STD1 50  fg/mL 08102
PSTAT	PSTAT	REF600-24079	Potentiostat
VINIT	QUANT	-3.50000E-001	Initial E (V)
VFINAL	QUANT	-1.50000E-001	Final E (V)
STEPSIZE	QUANT	2.00000E+000	Step Size (mV)
TIMERRES	QUANT	3.33340E-005	&Timer Resolution
FREQUENCY	QUANT	1.00000E+001	Frequency (Hz)
PULSESIZE	QUANT	2.50000E+001	Pulse Size E (mV)
PULSEON	QUANT	1.00000E-001	Pulse &Time (s)
NOISEREJECT	TOGGLE	F	Noise Rejection
AREA	QUANT	2.00000E-002	Sample Area (cm^2)
IMODE	SELECTOR	1	I/E Range Mode
IRANGE	QUANT	1.00000E-003	Max Current (mA)
EQDELAY	IQUANT	10	Equil. Time (s)
IRCOMP	SELECTOR	0	IRComp
PFCOR	QUANT	5.00000E+001	PF Corr. (ohm)
CYCLES	IQUANT	101	C&ycles (#)
ELECTRODETYPE	SELECTOR	0	Electrode Type
STRIPPING	TOGGLE	F	Used for Stripping
POLARITY	TOGGLE	F	Signal Polarity
LINEFREQ	IQUANT	60	Line Frequency (Hz)
INTPERIOD	QUANT	3.3334E-005	Integration Period (s)
SEQUENCER	TOGGLE	TRUE	Run as Sequence
PSTATMODEL	IQUANT	4	Pstat Model
PSTATSECTION	LABEL	REF600-24079	Pstat Section
PSTATSERIALNO	LABEL	24079	Pstat Serial Number
CTRLMODE	IQUANT	1	Control Mode
ELECTROMETER	IQUANT	0	RE=0 or CS=1
IESTAB	IQUANT	2	I/E Stability
CASPEED	IQUANT	6	Control Amp Speed
CONVENTION	IQUANT	1	Current Convention
ICHRANGE	IQUANT	2	Ich Range
ICHRANGEMODE	TOGGLE	F	Ich Auto Range
ICHOFFSETENABLE	TOGGLE	F	Ich Offset Enable
ICHOFFSET	QUANT	0	Ich Offset (V)
ICHFILTER	IQUANT	2	Ich Filter
VCHRANGE	IQUANT	2	Vch Range
VCHRANGEMODE	TOGGLE	F	Vch Auto Range
VCHOFFSETENABLE	TOGGLE	F	Vch Offset Enable
VCHOFFSET	QUANT	0	Vch Offset (V)
VCHFILTER	IQUANT	2	Vch Filter
ACHRANGE	IQUANT	2	Ach Range
ACHOFFSETENABLE	TOGGLE	F	Ach Offset Enable
ACHOFFSET	QUANT	0	Ach Offset (V)
ACHFILTER	IQUANT	1	Ach Filter
IERANGELOWERLIMIT	IQUANT	1	I/E Range Lower Limit
IERANGEMODE	TOGGLE	F	I/E AutoRange
IERANGE	IQUANT	6	I/E Range
POSFEEDENABLE	TOGGLE	F	Positive Feedback IR Comp
POSFEEDRESISTANCE	QUANT	0	Positive Feedback Resistance (ohm)
ACHSELECT	IQUANT	0	Ach Select
SENSECABLEID	IQUANT	13	Sense Cable ID
PWRCABLEID	IQUANT	13	Power Cable ID
DCCALDATE	LABEL	6/30/2020	DC Calibration Date
ACCALDATE	LABEL	6/30/2020	AC Calibration Date
THERMOSELECT	IQUANT	1	Thermo Select
FRAMEWORKVERSION	LABEL	7.8.2	Framework Version
INSTRUMENTVERSION	LABEL	4.40	Instrument Version
CURVE	TABLE	101
	Pt	T	Vfwd	Vrev	Vstep	Ifwd	Irev	Idif	Sig	Ach	IERange	Over	Temp
	#	s	V	V	V	A	A	A	V	V	#	bits	deg C
	0	0.1	-3.25014E-001	-3.74951E-001	-3.49982E-001	-1.50136E-007	-2.90163E-007	1.40027E-007	-3.75000E-001	4.05206E-004	6	..........a	-327.68
	2	0.3	-3.20973E-001	-3.70851E-001	-3.45912E-001	-1.30212E-007	-2.72999E-007	1.42788E-007	-3.71000E-001	3.99206E-004	6	..........a	-327.68
	4	0.5	-3.17068E-001	-3.66887E-001	-3.41977E-001	-1.22181E-007	-2.60614E-007	1.38433E-007	-3.67000E-001	4.11706E-004	6	..........a	-327.68
	6	0.7	-3.13022E-001	-3.62876E-001	-3.37949E-001	-1.15015E-007	-2.49115E-007	1.34100E-007	-3.63000E-001	4.17539E-004	6	..........a	-327.68
	8	0.9	-3.08989E-001	-3.58946E-001	-3.33968E-001	-1.08611E-007	-2.38154E-007	1.29544E-007	-3.59000E-001	4.13039E-004	6	..........a	-327.68
	10	1.1	-3.05045E-001	-3.54924E-001	-3.29985E-001	-1.02482E-007	-2.27975E-007	1.25493E-007	-3.55000E-001	4.14039E-004	6	..........a	-327.68
	12	1.3	-3.01042E-001	-3.50931E-001	-3.25986E-001	-9.65094E-008	-2.18298E-007	1.21789E-007	-3.51000E-001	3.97039E-004	6	..........a	-327.68
	14	1.5	-2.97011E-001	-3.46940E-001	-3.21975E-001	-9.07250E-008	-2.08800E-007	1.18075E-007	-3.47000E-001	4.13373E-004	6	..........a	-327.68
	16	1.7	-2.92996E-001	-3.42921E-001	-3.17958E-001	-8.50756E-008	-2.00138E-007	1.15062E-007	-3.43000E-001	4.09206E-004	6	..........a	-327.68
	18	1.9	-2.89041E-001	-3.38864E-001	-3.13953E-001	-7.97366E-008	-1.91463E-007	1.11727E-007	-3.39000E-001	4.12873E-004	6	..........a	-327.68
	20	2.1	-2.85023E-001	-3.34935E-001	-3.09979E-001	-7.46889E-008	-1.83543E-007	1.08855E-007	-3.35000E-001	4.09706E-004	6	..........a	-327.68
	22	2.3	-2.81072E-001	-3.30908E-001	-3.05990E-001	-6.96103E-008	-1.75390E-007	1.05779E-007	-3.31000E-001	4.19039E-004	6	..........a	-327.68
	24	2.5	-2.76996E-001	-3.26928E-001	-3.01962E-001	-6.48650E-008	-1.67795E-007	1.02930E-007	-3.27000E-001	4.12373E-004	6	..........a	-327.68
	26	2.7	-2.72970E-001	-3.22934E-001	-2.97952E-001	-6.02711E-008	-1.60525E-007	1.00253E-007	-3.23000E-001	4.00039E-004	6	..........a	-327.68
	28	2.9	-2.68946E-001	-3.18879E-001	-2.93912E-001	-5.57985E-008	-1.53317E-007	9.75181E-008	-3.19000E-001	4.02206E-004	6	..........a	-327.68
	30	3.1	-2.65086E-001	-3.14948E-001	-2.90017E-001	-5.15183E-008	-1.47010E-007	9.54918E-008	-3.15000E-001	3.97039E-004	6	..........a	-327.68
	32	3.3	-2.61029E-001	-3.10924E-001	-2.85977E-001	-4.76581E-008	-1.40605E-007	9.29471E-008	-3.11000E-001	4.00039E-004	6	..........a	-327.68
	34	3.5	-2.57027E-001	-3.06919E-001	-2.81973E-001	-4.38237E-008	-1.34675E-007	9.08512E-008	-3.07000E-001	4.08039E-004	6	..........a	-327.68
	36	3.7	-2.53038E-001	-3.02960E-001	-2.77999E-001	-4.00335E-008	-1.28528E-007	8.84946E-008	-3.03000E-001	4.15539E-004	6	..........a	-327.68
	38	3.9	-2.49018E-001	-2.98945E-001	-2.73982E-001	-3.66677E-008	-1.23029E-007	8.63610E-008	-2.99000E-001	4.11373E-004	6	..........a	-327.68
	40	4.1	-2.44977E-001	-2.94925E-001	-2.69951E-001	-3.30206E-008	-1.17835E-007	8.48141E-008	-2.95000E-001	4.11039E-004	6	..........a	-327.68
	42	4.3	-2.41103E-001	-2.90875E-001	-2.65989E-001	-2.98572E-008	-1.12797E-007	8.29396E-008	-2.91000E-001	4.08039E-004	6	..........a	-327.68
	44	4.5	-2.36998E-001	-2.86899E-001	-2.61949E-001	-2.66491E-008	-1.07974E-007	8.13253E-008	-2.87000E-001	4.04539E-004	6	..........a	-327.68
	46	4.7	-2.33041E-001	-2.82895E-001	-2.57968E-001	-2.38931E-008	-1.03268E-007	7.93751E-008	-2.83000E-001	4.10706E-004	6	..........a	-327.68
	48	4.9	-2.29070E-001	-2.78958E-001	-2.54014E-001	-2.10721E-008	-9.88707E-008	7.77986E-008	-2.79000E-001	4.10039E-004	6	..........a	-327.68
	50	5.1	-2.25023E-001	-2.74945E-001	-2.49984E-001	-1.85994E-008	-9.45935E-008	7.59940E-008	-2.75000E-001	4.12039E-004	6	..........a	-327.68
	52	5.3	-2.20993E-001	-2.70964E-001	-2.45979E-001	-1.60895E-008	-9.04346E-008	7.43451E-008	-2.71000E-001	4.08373E-004	6	..........a	-327.68
	54	5.5	-2.17115E-001	-2.66837E-001	-2.41976E-001	-1.37668E-008	-8.64784E-008	7.27116E-008	-2.67000E-001	4.10706E-004	6	..........a	-327.68
	56	5.7	-2.12974E-001	-2.62907E-001	-2.37941E-001	-1.14295E-008	-8.27623E-008	7.13327E-008	-2.63000E-001	4.16039E-004	6	..........a	-327.68
	58	5.9	-2.09024E-001	-2.58895E-001	-2.33959E-001	-9.40328E-009	-7.93795E-008	6.99762E-008	-2.59000E-001	4.26373E-004	6	..........a	-327.68
	60	6.1	-2.05020E-001	-2.54942E-001	-2.29981E-001	-7.38002E-009	-7.55227E-008	6.81427E-008	-2.55000E-001	4.16373E-004	6	..........a	-327.68
	62	6.3	-2.01055E-001	-2.50932E-001	-2.25993E-001	-5.46511E-009	-7.22946E-008	6.68295E-008	-2.51000E-001	4.13706E-004	6	..........a	-327.68
	64	6.5	-1.97005E-001	-2.46911E-001	-2.21958E-001	-3.40118E-009	-6.90305E-008	6.56294E-008	-2.47000E-001	4.17539E-004	6	..........a	-327.68
	66	6.7	-1.92999E-001	-2.42857E-001	-2.17928E-001	-1.87499E-009	-6.61238E-008	6.42488E-008	-2.43000E-001	4.16873E-004	6	..........a	-327.68
	68	6.9	-1.89073E-001	-2.38896E-001	-2.13985E-001	-2.83786E-010	-6.31975E-008	6.29137E-008	-2.39000E-001	4.08706E-004	6	..........a	-327.68
	70	7.1	-1.85064E-001	-2.34883E-001	-2.09973E-001	1.63146E-009	-6.05405E-008	6.21719E-008	-2.35000E-001	4.10373E-004	6	..........a	-327.68
	72	7.3	-1.81067E-001	-2.30886E-001	-2.05977E-001	3.03830E-009	-5.78048E-008	6.08431E-008	-2.31000E-001	4.18706E-004	6	..........a	-327.68
	74	7.5	-1.77075E-001	-2.26926E-001	-2.02001E-001	4.44348E-009	-5.51521E-008	5.95956E-008	-2.27000E-001	4.08373E-004	6	..........a	-327.68
	76	7.7	-1.73051E-001	-2.22916E-001	-1.97983E-001	5.71964E-009	-5.30068E-008	5.87265E-008	-2.23000E-001	4.21873E-004	6	..........a	-327.68
	78	7.9	-1.69048E-001	-2.18953E-001	-1.94001E-001	7.10715E-009	-5.08079E-008	5.79150E-008	-2.19000E-001	4.03039E-004	6	..........a	-327.68
	80	8.1	-1.64910E-001	-2.14893E-001	-1.89901E-001	8.41832E-009	-4.87676E-008	5.71859E-008	-2.15000E-001	4.08373E-004	6	..........a	-327.68
	82	8.3	-1.61049E-001	-2.10923E-001	-1.85986E-001	9.79483E-009	-4.64777E-008	5.62725E-008	-2.11000E-001	3.99039E-004	6	..........a	-327.68
	84	8.5	-1.57052E-001	-2.06924E-001	-1.81988E-001	1.09646E-008	-4.47441E-008	5.57088E-008	-2.07000E-001	3.96373E-004	6	..........a	-327.68
	86	8.7	-1.53095E-001	-2.02918E-001	-1.78006E-001	1.21268E-008	-4.29572E-008	5.50840E-008	-2.03000E-001	4.13206E-004	6	..........a	-327.68
	88	8.9	-1.49041E-001	-1.98940E-001	-1.73990E-001	1.33810E-008	-4.11837E-008	5.45646E-008	-1.99000E-001	4.07873E-004	6	..........a	-327.68
	90	9.1	-1.45031E-001	-1.94933E-001	-1.69982E-001	1.41601E-008	-3.96775E-008	5.38375E-008	-1.95000E-001	4.05206E-004	6	..........a	-327.68
	92	9.3	-1.41020E-001	-1.90985E-001	-1.66002E-001	1.51108E-008	-3.80836E-008	5.31944E-008	-1.91000E-001	4.10039E-004	6	..........a	-327.68
	94	9.5	-1.37093E-001	-1.86877E-001	-1.61985E-001	1.62156E-008	-3.64664E-008	5.26820E-008	-1.87000E-001	4.06039E-004	6	..........a	-327.68
	96	9.7	-1.33015E-001	-1.82954E-001	-1.57984E-001	1.70371E-008	-3.53106E-008	5.23477E-008	-1.83000E-001	4.07206E-004	6	..........a	-327.68
	98	9.9	-1.29043E-001	-1.78900E-001	-1.53971E-001	1.80502E-008	-3.37690E-008	5.18193E-008	-1.79000E-001	4.06873E-004	6	..........a	-327.68
	100	10.1	-1.25057E-001	-1.74969E-001	-1.50013E-001	1.89553E-008	-3.24719E-008	5.14272E-008	-1.75000E-001	4.17373E-004	6	..........a	-327.68

File: SWV_10Hz STD1 100  fgml 081020_#3.DTA
EXPLAIN
TAG	SQUARE_WAVE
TITLE	LABEL	Square Wave Voltammetry	Test Identifier
DATE	LABEL	8/10/2020	Date
TIME	LABEL	20:03:34	Time
NOTES	NOTES	1	Notes...
	 STD1 100  fg/mL 08102
PSTAT	PSTAT	REF600-24079	Potentiostat
VINIT	QUANT	-3.50000E-001	Initial E (V)
VFINAL	QUANT	-1.50000E-001	Final E (V)
STEPSIZE	QUANT	2.00000E+000	Step Size (mV)
TIMERRES	QUANT	3.33340E-005	&Timer Resolution
FREQUENCY	QUANT	1.00000E+001	Frequency (Hz)
PULSESIZE	QUANT	2.50000E+001	Pulse Size E (mV)
PULSEON	QUANT	1.00000E-001	Pulse &Time (s)
NOISEREJECT	TOGGLE	F	Noise Rejection
AREA	QUANT	2.00000E-002	Sample Area (cm^2)
IMODE	SELECTOR	1	I/E Range Mode
IRANGE	QUANT	1.00000E-003	Max Current (mA)
EQDELAY	IQUANT	10	Equil. Time (s)
IRCOMP	SELECTOR	0	IRComp
PFCOR	QUANT	5.00000E+001	PF Corr. (ohm)
CYCLES	IQUANT	101	C&ycles (#)
ELECTRODETYPE	SELECTOR	0	Electrode Type
STRIPPING	TOGGLE	F	Used for Stripping
POLARITY	TOGGLE	F	Signal Polarity
LINEFREQ	IQUANT	60	Line Frequency (Hz)
INTPERIOD	QUANT	3.3334E-005	Integration Period (s)
SEQUENCER	TOGGLE	TRUE	Run as Sequence
PSTATMODEL	IQUANT	4	Pstat Model
PSTATSECTION	LABEL	REF600-24079	Pstat Section
PSTATSERIALNO	LABEL	24079	Pstat Serial Number
CTRLMODE	IQUANT	1	Control Mode
ELECTROMETER	IQUANT	0	RE=0 or CS=1
IESTAB	IQUANT	2	I/E Stability
CASPEED	IQUANT	6	Control Amp Speed
CONVENTION	IQUANT	1	Current Convention
ICHRANGE	IQUANT	2	Ich Range
ICHRANGEMODE	TOGGLE	F	Ich Auto Range
ICHOFFSETENABLE	TOGGLE	F	Ich Offset Enable
ICHOFFSET	QUANT	0	Ich Offset (V)
ICHFILTER	IQUANT	2	Ich Filter
VCHRANGE	IQUANT	2	Vch Range
VCHRANGEMODE	TOGGLE	F	Vch Auto Range
VCHOFFSETENABLE	TOGGLE	F	Vch Offset Enable
VCHOFFSET	QUANT	0	Vch Offset (V)
VCHFILTER	IQUANT	2	Vch Filter
ACHRANGE	IQUANT	2	Ach Range
ACHOFFSETENABLE	TOGGLE	F	Ach Offset Enable
ACHOFFSET	QUANT	0	Ach Offset (V)
ACHFILTER	IQUANT	1	Ach Filter
IERANGELOWERLIMIT	IQUANT	1	I/E Range Lower Limit
IERANGEMODE	TOGGLE	F	I/E AutoRange
IERANGE	IQUANT	6	I/E Range
POSFEEDENABLE	TOGGLE	F	Positive Feedback IR Comp
POSFEEDRESISTANCE	QUANT	0	Positive Feedback Resistance (ohm)
ACHSELECT	IQUANT	0	Ach Select
SENSECABLEID	IQUANT	13	Sense Cable ID
PWRCABLEID	IQUANT	13	Power Cable ID
DCCALDATE	LABEL	6/30/2020	DC Calibration Date
ACCALDATE	LABEL	6/30/2020	AC Calibration Date
THERMOSELECT	IQUANT	1	Thermo Select
FRAMEWORKVERSION	LABEL	7.8.2	Framework Version
INSTRUMENTVERSION	LABEL	4.40	Instrument Version
CURVE	TABLE	101
	Pt	T	Vfwd	Vrev	Vstep	Ifwd	Irev	Idif	Sig	Ach	IERange	Over	Temp
	#	s	V	V	V	A	A	A	V	V	#	bits	deg C
	0	0.1	-3.25052E-001	-3.75003E-001	-3.50028E-001	-1.72507E-007	-3.46021E-007	1.73515E-007	-3.75000E-001	4.42039E-004	6	..........a	-327.68
	2	0.3	-3.21019E-001	-3.70955E-001	-3.45987E-001	-1.51111E-007	-3.24481E-007	1.73370E-007	-3.71000E-001	4.32206E-004	6	..........a	-327.68
	4	0.5	-3.17081E-001	-3.67006E-001	-3.42044E-001	-1.41655E-007	-3.08263E-007	1.66609E-007	-3.67000E-001	4.36206E-004	6	..........a	-327.68
	6	0.7	-3.13090E-001	-3.62930E-001	-3.38010E-001	-1.32904E-007	-2.93383E-007	1.60478E-007	-3.63000E-001	4.47873E-004	6	..........a	-327.68
	8	0.9	-3.09086E-001	-3.58971E-001	-3.34028E-001	-1.24909E-007	-2.79305E-007	1.54396E-007	-3.59000E-001	4.37039E-004	6	..........a	-327.68
	10	1.1	-3.05103E-001	-3.54947E-001	-3.30025E-001	-1.17291E-007	-2.65883E-007	1.48592E-007	-3.55000E-001	4.30039E-004	6	..........a	-327.68
	12	1.3	-3.01048E-001	-3.50960E-001	-3.26004E-001	-1.10023E-007	-2.53391E-007	1.43369E-007	-3.51000E-001	4.30373E-004	6	..........a	-327.68
	14	1.5	-2.97043E-001	-3.46963E-001	-3.22003E-001	-1.03015E-007	-2.41240E-007	1.38225E-007	-3.47000E-001	4.27706E-004	6	..........a	-327.68
	16	1.7	-2.93074E-001	-3.43014E-001	-3.18044E-001	-9.66384E-008	-2.29913E-007	1.33274E-007	-3.43000E-001	4.36206E-004	6	..........a	-327.68
	18	1.9	-2.89109E-001	-3.38933E-001	-3.14021E-001	-9.00449E-008	-2.18964E-007	1.28919E-007	-3.39000E-001	4.30706E-004	6	..........a	-327.68
	20	2.1	-2.85072E-001	-3.34990E-001	-3.10031E-001	-8.40148E-008	-2.08625E-007	1.24610E-007	-3.35000E-001	4.36373E-004	6	..........a	-327.68
	22	2.3	-2.81098E-001	-3.30946E-001	-3.06022E-001	-7.79103E-008	-1.98810E-007	1.20900E-007	-3.31000E-001	4.34706E-004	6	..........a	-327.68
	24	2.5	-2.77063E-001	-3.27016E-001	-3.02040E-001	-7.23143E-008	-1.89152E-007	1.16838E-007	-3.27000E-001	4.38873E-004	6	..........a	-327.68
	26	2.7	-2.73050E-001	-3.22968E-001	-2.98009E-001	-6.70650E-008	-1.80257E-007	1.13192E-007	-3.23000E-001	4.34206E-004	6	..........a	-327.68
	28	2.9	-2.68994E-001	-3.19001E-001	-2.93997E-001	-6.16643E-008	-1.71454E-007	1.09789E-007	-3.19000E-001	4.30873E-004	6	..........a	-327.68
	30	3.1	-2.65101E-001	-3.14944E-001	-2.90023E-001	-5.68880E-008	-1.63488E-007	1.06600E-007	-3.15000E-001	4.40039E-004	6	..........a	-327.68
	32	3.3	-2.61062E-001	-3.10982E-001	-2.86022E-001	-5.20000E-008	-1.55379E-007	1.03379E-007	-3.11000E-001	4.27039E-004	6	..........a	-327.68
	34	3.5	-2.57087E-001	-3.06964E-001	-2.82025E-001	-4.77105E-008	-1.48122E-007	1.00411E-007	-3.07000E-001	4.26039E-004	6	..........a	-327.68
	36	3.7	-2.53072E-001	-3.03023E-001	-2.78047E-001	-4.35036E-008	-1.41126E-007	9.76221E-008	-3.03000E-001	4.28873E-004	6	..........a	-327.68
	38	3.9	-2.49056E-001	-2.98967E-001	-2.74012E-001	-3.92991E-008	-1.34424E-007	9.51248E-008	-2.99000E-001	4.35206E-004	6	..........a	-327.68
	40	4.1	-2.45038E-001	-2.94977E-001	-2.70007E-001	-3.54523E-008	-1.27785E-007	9.23331E-008	-2.95000E-001	4.38039E-004	6	..........a	-327.68
	42	4.3	-2.41126E-001	-2.90936E-001	-2.66031E-001	-3.19935E-008	-1.21725E-007	8.97311E-008	-2.91000E-001	4.43706E-004	6	..........a	-327.68
	44	4.5	-2.37066E-001	-2.86983E-001	-2.62025E-001	-2.83087E-008	-1.15863E-007	8.75541E-008	-2.87000E-001	4.38039E-004	6	..........a	-327.68
	46	4.7	-2.33097E-001	-2.82954E-001	-2.58025E-001	-2.50849E-008	-1.10420E-007	8.53355E-008	-2.83000E-001	4.36539E-004	6	..........a	-327.68
	48	4.9	-2.29115E-001	-2.79031E-001	-2.54073E-001	-2.18895E-008	-1.04973E-007	8.30836E-008	-2.79000E-001	4.45206E-004	6	..........a	-327.68
	50	5.1	-2.25086E-001	-2.74983E-001	-2.50034E-001	-1.92415E-008	-1.00115E-007	8.08739E-008	-2.75000E-001	4.44539E-004	6	..........a	-327.68
	52	5.3	-2.21049E-001	-2.70988E-001	-2.46019E-001	-1.66239E-008	-9.54989E-008	7.88750E-008	-2.71000E-001	4.37206E-004	6	..........a	-327.68
	54	5.5	-2.17132E-001	-2.66917E-001	-2.42025E-001	-1.39655E-008	-9.10077E-008	7.70421E-008	-2.67000E-001	4.40039E-004	6	..........a	-327.68
	56	5.7	-2.13052E-001	-2.63009E-001	-2.38030E-001	-1.15032E-008	-8.64944E-008	7.49912E-008	-2.63000E-001	4.60539E-004	6	..........a	-327.68
	58	5.9	-2.09101E-001	-2.58945E-001	-2.34023E-001	-9.18125E-009	-8.24919E-008	7.33107E-008	-2.59000E-001	4.41373E-004	6	..........a	-327.68
	60	6.1	-2.05078E-001	-2.54990E-001	-2.30034E-001	-7.20700E-009	-7.80767E-008	7.08697E-008	-2.55000E-001	4.31373E-004	6	..........a	-327.68
	62	6.3	-2.01102E-001	-2.50971E-001	-2.26036E-001	-5.00872E-009	-7.45289E-008	6.95202E-008	-2.51000E-001	4.40873E-004	6	..........a	-327.68
	64	6.5	-1.97065E-001	-2.46956E-001	-2.22011E-001	-2.95713E-009	-7.08981E-008	6.79410E-008	-2.47000E-001	4.36539E-004	6	..........a	-327.68
	66	6.7	-1.93059E-001	-2.42953E-001	-2.18006E-001	-9.66873E-010	-6.76847E-008	6.67178E-008	-2.43000E-001	4.44206E-004	6	..........a	-327.68
	68	6.9	-1.89107E-001	-2.38977E-001	-2.14042E-001	6.88671E-010	-6.45536E-008	6.52423E-008	-2.39000E-001	4.43873E-004	6	..........a	-327.68
	70	7.1	-1.85116E-001	-2.34929E-001	-2.10022E-001	2.21453E-009	-6.13032E-008	6.35177E-008	-2.35000E-001	4.42373E-004	6	..........a	-327.68
	72	7.3	-1.81114E-001	-2.30965E-001	-2.06039E-001	3.82840E-009	-5.87272E-008	6.25556E-008	-2.31000E-001	4.38873E-004	6	..........a	-327.68
	74	7.5	-1.77116E-001	-2.26952E-001	-2.02034E-001	4.97822E-009	-5.59395E-008	6.09178E-008	-2.27000E-001	4.38539E-004	6	..........a	-327.68
	76	7.7	-1.73108E-001	-2.22962E-001	-1.98035E-001	6.59142E-009	-5.31635E-008	5.97549E-008	-2.23000E-001	4.30706E-004	6	..........a	-327.68
	78	7.9	-1.69096E-001	-2.18988E-001	-1.94042E-001	7.83691E-009	-5.12133E-008	5.90502E-008	-2.19000E-001	4.43206E-004	6	..........a	-327.68
	80	8.1	-1.64922E-001	-2.14955E-001	-1.89938E-001	9.17708E-009	-4.90607E-008	5.82377E-008	-2.15000E-001	4.35373E-004	6	..........a	-327.68
	82	8.3	-1.61108E-001	-2.10977E-001	-1.86042E-001	1.04356E-008	-4.66774E-008	5.71129E-008	-2.11000E-001	4.31706E-004	6	..........a	-327.68
	84	8.5	-1.57102E-001	-2.06991E-001	-1.82046E-001	1.18001E-008	-4.48771E-008	5.66772E-008	-2.07000E-001	4.36873E-004	6	..........a	-327.68
	86	8.7	-1.53119E-001	-2.02956E-001	-1.78038E-001	1.28846E-008	-4.28795E-008	5.57641E-008	-2.03000E-001	4.31539E-004	6	..........a	-327.68
	88	8.9	-1.49111E-001	-1.99010E-001	-1.74060E-001	1.36767E-008	-4.11140E-008	5.47906E-008	-1.99000E-001	4.44539E-004	6	..........a	-327.68
	90	9.1	-1.45096E-001	-1.94964E-001	-1.70030E-001	1.46604E-008	-3.94434E-008	5.41039E-008	-1.95000E-001	4.48206E-004	6	..........a	-327.68
	92	9.3	-1.41076E-001	-1.91094E-001	-1.66085E-001	1.59073E-008	-3.78256E-008	5.37328E-008	-1.91000E-001	4.47706E-004	6	..........a	-327.68
	94	9.5	-1.37125E-001	-1.86936E-001	-1.62030E-001	1.67364E-008	-3.63737E-008	5.31101E-008	-1.87000E-001	4.43706E-004	6	..........a	-327.68
	96	9.7	-1.33103E-001	-1.83027E-001	-1.58065E-001	1.76005E-008	-3.50742E-008	5.26747E-008	-1.83000E-001	4.52873E-004	6	..........a	-327.68
	98	9.9	-1.29104E-001	-1.78949E-001	-1.54027E-001	1.83336E-008	-3.38141E-008	5.21476E-008	-1.79000E-001	4.52206E-004	6	..........a	-327.68
	100	10.1	-1.25103E-001	-1.75052E-001	-1.50078E-001	1.91397E-008	-3.25872E-008	5.17269E-008	-1.75000E-001	4.49206E-004	6	..........a	-327.68