Folder: EchemAnalysis_AMA/Sample Data/Concentration Curve Data/C-COM3 (part 12)

File: SWV_500Hz STD3 aptmch 081020.DTA
EXPLAIN
TAG	SQUARE_WAVE
TITLE	LABEL	Square Wave Voltammetry	Test Identifier
DATE	LABEL	8/10/2020	Date
TIME	LABEL	13:20:57	Time
NOTES	NOTES	1	Notes...

PSTAT	PSTAT	REF600-24079	Potentiostat
VINIT	QUANT	-3.50000E-001	Initial E (V)
VFINAL	QUANT	-1.50000E-001	Final E (V)
STEPSIZE	QUANT	2.00000E+000	Step Size (mV)
TIMERRES	QUANT	3.33340E-005	&Timer Resolution
FREQUENCY	QUANT	5.00000E+002	Frequency (Hz)
PULSESIZE	QUANT	2.50000E+001	Pulse Size E (mV)
PULSEON	QUANT	2.00000E-003	Pulse &Time (s)
NOISEREJECT	TOGGLE	F	Noise Rejection
AREA	QUANT	2.00000E-002	Sample Area (cm^2)
IMODE	SELECTOR	1	I/E Range Mode
IRANGE	QUANT	1.00000E-002	Max Current (mA)
EQDELAY	IQUANT	10	Equil. Time (s)
IRCOMP	SELECTOR	0	IRComp
PFCOR	QUANT	5.00000E+001	PF Corr. (ohm)
CYCLES	IQUANT	101	C&ycles (#)
ELECTRODETYPE	SELECTOR	0	Electrode Type
STRIPPING	TOGGLE	F	Used for Stripping
POLARITY	TOGGLE	F	Signal Polarity
LINEFREQ	IQUANT	60	Line Frequency (Hz)
INTPERIOD	QUANT	3.3334E-005	Integration Period (s)
SEQUENCER	TOGGLE	TRUE	Run as Sequence
PSTATMODEL	IQUANT	4	Pstat Model
PSTATSECTION	LABEL	REF600-24079	Pstat Section
PSTATSERIALNO	LABEL	24079	Pstat Serial Number
CTRLMODE	IQUANT	1	Control Mode
ELECTROMETER	IQUANT	0	RE=0 or CS=1
IESTAB	IQUANT	2	I/E Stability
CASPEED	IQUANT	6	Control Amp Speed
CONVENTION	IQUANT	1	Current Convention
ICHRANGE	IQUANT	2	Ich Range
ICHRANGEMODE	TOGGLE	F	Ich Auto Range
ICHOFFSETENABLE	TOGGLE	F	Ich Offset Enable
ICHOFFSET	QUANT	0	Ich Offset (V)
ICHFILTER	IQUANT	1	Ich Filter
VCHRANGE	IQUANT	2	Vch Range
VCHRANGEMODE	TOGGLE	F	Vch Auto Range
VCHOFFSETENABLE	TOGGLE	F	Vch Offset Enable
VCHOFFSET	QUANT	0	Vch Offset (V)
VCHFILTER	IQUANT	1	Vch Filter
ACHRANGE	IQUANT	2	Ach Range
ACHOFFSETENABLE	TOGGLE	F	Ach Offset Enable
ACHOFFSET	QUANT	0	Ach Offset (V)
ACHFILTER	IQUANT	1	Ach Filter
IERANGELOWERLIMIT	IQUANT	1	I/E Range Lower Limit
IERANGEMODE	TOGGLE	F	I/E AutoRange
IERANGE	IQUANT	7	I/E Range
POSFEEDENABLE	TOGGLE	F	Positive Feedback IR Comp
POSFEEDRESISTANCE	QUANT	0	Positive Feedback Resistance (ohm)
ACHSELECT	IQUANT	0	Ach Select
SENSECABLEID	IQUANT	13	Sense Cable ID
PWRCABLEID	IQUANT	13	Power Cable ID
DCCALDATE	LABEL	6/30/2020	DC Calibration Date
ACCALDATE	LABEL	6/30/2020	AC Calibration Date
THERMOSELECT	IQUANT	1	Thermo Select
FRAMEWORKVERSION	LABEL	7.8.2	Framework Version
INSTRUMENTVERSION	LABEL	4.40	Instrument Version
CURVE	TABLE	101
	Pt	T	Vfwd	Vrev	Vstep	Ifwd	Irev	Idif	Sig	Ach	IERange	Over	Temp
	#	s	V	V	V	A	A	A	V	V	#	bits	deg C
	0	0.002	-3.23458E-001	-3.62191E-001	-3.42824E-001	7.34633E-008	-1.13386E-005	1.14121E-005	-3.75000E-001	3.57706E-004	7	..........a	-327.68
	2	0.006	-3.32916E-001	-3.55174E-001	-3.44045E-001	8.01771E-006	-7.60192E-006	1.56196E-005	-3.71000E-001	3.57706E-004	7	..........a	-327.68
	4	0.01	-3.29366E-001	-3.51291E-001	-3.40328E-001	7.97537E-006	-7.49924E-006	1.54746E-005	-3.67000E-001	2.82706E-004	7	..........a	-327.68
	6	0.014	-3.25374E-001	-3.47358E-001	-3.36366E-001	7.98821E-006	-7.47823E-006	1.54664E-005	-3.63000E-001	3.16039E-004	7	..........a	-327.68
	8	0.018	-3.21341E-001	-3.43341E-001	-3.32341E-001	7.99838E-006	-7.46190E-006	1.54603E-005	-3.59000E-001	3.66039E-004	7	..........a	-327.68
	10	0.022	-3.17241E-001	-3.39266E-001	-3.28253E-001	8.01121E-006	-7.45640E-006	1.54676E-005	-3.55000E-001	2.91039E-004	7	..........a	-327.68
	12	0.026	-3.13341E-001	-3.35258E-001	-3.24299E-001	8.02005E-006	-7.44523E-006	1.54653E-005	-3.51000E-001	3.07706E-004	7	..........a	-327.68
	14	0.03	-3.09316E-001	-3.31274E-001	-3.20295E-001	8.02121E-006	-7.44540E-006	1.54666E-005	-3.47000E-001	2.74373E-004	7	..........a	-327.68
	16	0.034	-3.05358E-001	-3.27299E-001	-3.16328E-001	8.02521E-006	-7.43289E-006	1.54581E-005	-3.43000E-001	3.24373E-004	7	..........a	-327.68
	18	0.038	-3.01307E-001	-3.23299E-001	-3.12303E-001	8.03205E-006	-7.42639E-006	1.54584E-005	-3.39000E-001	3.57706E-004	7	..........a	-327.68
	20	0.042	-2.97391E-001	-3.19324E-001	-3.08358E-001	8.03071E-006	-7.42689E-006	1.54576E-005	-3.35000E-001	2.66039E-004	7	..........a	-327.68
	22	0.046	-2.93333E-001	-3.15257E-001	-3.04295E-001	8.02938E-006	-7.42189E-006	1.54513E-005	-3.31000E-001	3.57706E-004	7	..........a	-327.68
	24	0.05	-2.89308E-001	-3.11274E-001	-3.00291E-001	8.03205E-006	-7.41639E-006	1.54484E-005	-3.27000E-001	2.99373E-004	7	..........a	-327.68
	26	0.054	-2.85341E-001	-3.07299E-001	-2.96320E-001	8.03671E-006	-7.41122E-006	1.54479E-005	-3.23000E-001	2.99373E-004	7	..........a	-327.68
	28	0.058	-2.81341E-001	-3.03249E-001	-2.92295E-001	8.04338E-006	-7.41256E-006	1.54559E-005	-3.19000E-001	2.91039E-004	7	..........a	-327.68
	30	0.062	-2.77291E-001	-2.99324E-001	-2.88308E-001	8.04405E-006	-7.40806E-006	1.54521E-005	-3.15000E-001	2.66039E-004	7	..........a	-327.68
	32	0.066	-2.73241E-001	-2.95266E-001	-2.84253E-001	8.04455E-006	-7.40739E-006	1.54519E-005	-3.11000E-001	4.07706E-004	7	..........a	-327.68
	34	0.07	-2.69324E-001	-2.91316E-001	-2.80320E-001	8.04555E-006	-7.39555E-006	1.54411E-005	-3.07000E-001	2.49373E-004	7	..........a	-327.68
	36	0.074	-2.65274E-001	-2.87257E-001	-2.76266E-001	8.04955E-006	-7.39489E-006	1.54444E-005	-3.03000E-001	2.57706E-004	7	..........a	-327.68
	38	0.078	-2.61224E-001	-2.83316E-001	-2.72270E-001	8.05088E-006	-7.39339E-006	1.54443E-005	-2.99000E-001	2.49373E-004	7	..........a	-327.68
	40	0.082	-2.57307E-001	-2.79357E-001	-2.68332E-001	8.04688E-006	-7.38972E-006	1.54366E-005	-2.95000E-001	3.32706E-004	7	..........a	-327.68
	42	0.086	-2.53266E-001	-2.75383E-001	-2.64324E-001	8.05205E-006	-7.38622E-006	1.54383E-005	-2.91000E-001	3.41039E-004	7	..........a	-327.68
	44	0.09	-2.49291E-001	-2.71291E-001	-2.60291E-001	8.05605E-006	-7.38289E-006	1.54389E-005	-2.87000E-001	2.66039E-004	7	..........a	-327.68
	46	0.094	-2.45283E-001	-2.67291E-001	-2.56287E-001	8.05772E-006	-7.37839E-006	1.54361E-005	-2.83000E-001	2.99373E-004	7	..........a	-327.68
	48	0.098	-2.41258E-001	-2.63316E-001	-2.52287E-001	8.06122E-006	-7.37405E-006	1.54353E-005	-2.79000E-001	2.91039E-004	7	..........a	-327.68
	50	0.102	-2.37266E-001	-2.59266E-001	-2.48266E-001	8.05755E-006	-7.37289E-006	1.54304E-005	-2.75000E-001	3.24373E-004	7	..........a	-327.68
	52	0.106	-2.33283E-001	-2.55249E-001	-2.44266E-001	8.06339E-006	-7.36505E-006	1.54284E-005	-2.71000E-001	2.74373E-004	7	..........a	-327.68
	54	0.11	-2.29291E-001	-2.51316E-001	-2.40303E-001	8.06539E-006	-7.36222E-006	1.54276E-005	-2.67000E-001	3.57706E-004	7	..........a	-327.68
	56	0.114	-2.25208E-001	-2.47258E-001	-2.36233E-001	8.06305E-006	-7.36488E-006	1.54279E-005	-2.63000E-001	3.16039E-004	7	..........a	-327.68
	58	0.118	-2.21291E-001	-2.43333E-001	-2.32312E-001	8.06305E-006	-7.36055E-006	1.54236E-005	-2.59000E-001	3.24373E-004	7	..........a	-327.68
	60	0.122	-2.17324E-001	-2.39274E-001	-2.28299E-001	8.06622E-006	-7.35955E-006	1.54258E-005	-2.55000E-001	2.66039E-004	7	..........a	-327.68
	62	0.126	-2.13266E-001	-2.35349E-001	-2.24308E-001	8.06672E-006	-7.35822E-006	1.54249E-005	-2.51000E-001	2.99373E-004	7	..........a	-327.68
	64	0.13	-2.09258E-001	-2.31324E-001	-2.20291E-001	8.06739E-006	-7.35822E-006	1.54256E-005	-2.47000E-001	3.24373E-004	7	..........a	-327.68
	66	0.134	-2.05299E-001	-2.27341E-001	-2.16320E-001	8.06822E-006	-7.35255E-006	1.54208E-005	-2.43000E-001	2.82706E-004	7	..........a	-327.68
	68	0.138	-2.01216E-001	-2.23424E-001	-2.12320E-001	8.06672E-006	-7.35388E-006	1.54206E-005	-2.39000E-001	2.91039E-004	7	..........a	-327.68
	70	0.142	-1.97291E-001	-2.19383E-001	-2.08337E-001	8.06872E-006	-7.35355E-006	1.54223E-005	-2.35000E-001	3.74373E-004	7	..........a	-327.68
	72	0.146	-1.93249E-001	-2.15316E-001	-2.04283E-001	8.06839E-006	-7.35288E-006	1.54213E-005	-2.31000E-001	2.99373E-004	7	..........a	-327.68
	74	0.15	-1.89249E-001	-2.11391E-001	-2.00320E-001	8.06855E-006	-7.35188E-006	1.54204E-005	-2.27000E-001	2.82706E-004	7	..........a	-327.68
	76	0.154	-1.85183E-001	-2.07283E-001	-1.96233E-001	8.06705E-006	-7.35288E-006	1.54199E-005	-2.23000E-001	2.41039E-004	7	..........a	-327.68
	78	0.158	-1.81283E-001	-2.03399E-001	-1.92341E-001	8.06655E-006	-7.35372E-006	1.54203E-005	-2.19000E-001	2.66039E-004	7	..........a	-327.68
	80	0.162	-1.77249E-001	-1.99308E-001	-1.88278E-001	8.07339E-006	-7.34888E-006	1.54223E-005	-2.15000E-001	2.99373E-004	7	..........a	-327.68
	82	0.166	-1.73224E-001	-1.95358E-001	-1.84291E-001	8.06872E-006	-7.35572E-006	1.54244E-005	-2.11000E-001	3.16039E-004	7	..........a	-327.68
	84	0.17	-1.69299E-001	-1.91258E-001	-1.80278E-001	8.07489E-006	-7.34605E-006	1.54209E-005	-2.07000E-001	2.32706E-004	7	..........a	-327.68
	86	0.174	-1.65291E-001	-1.87383E-001	-1.76337E-001	8.07639E-006	-7.35188E-006	1.54283E-005	-2.03000E-001	3.16039E-004	7	..........a	-327.68
	88	0.178	-1.61224E-001	-1.83341E-001	-1.72283E-001	8.07189E-006	-7.35188E-006	1.54238E-005	-1.99000E-001	3.07706E-004	7	..........a	-327.68
	90	0.182	-1.57241E-001	-1.79358E-001	-1.68299E-001	8.07322E-006	-7.35055E-006	1.54238E-005	-1.95000E-001	2.74373E-004	7	..........a	-327.68
	92	0.186	-1.53233E-001	-1.75341E-001	-1.64287E-001	8.07522E-006	-7.34905E-006	1.54243E-005	-1.91000E-001	3.66039E-004	7	..........a	-327.68
	94	0.19	-1.49266E-001	-1.71291E-001	-1.60278E-001	8.07372E-006	-7.35322E-006	1.54269E-005	-1.87000E-001	3.57706E-004	7	..........a	-327.68
	96	0.194	-1.45283E-001	-1.67324E-001	-1.56303E-001	8.07472E-006	-7.35105E-006	1.54258E-005	-1.83000E-001	2.91039E-004	7	..........a	-327.68
	98	0.198	-1.41158E-001	-1.63274E-001	-1.52216E-001	8.07839E-006	-7.34505E-006	1.54234E-005	-1.79000E-001	3.41039E-004	7	..........a	-327.68
	100	0.202	-1.37216E-001	-1.59291E-001	-1.48253E-001	8.07972E-006	-7.35255E-006	1.54323E-005	-1.75000E-001	3.32706E-004	7	..........a	-327.68