Folder: EchemAnalysis_AMA/Sample Data/Concentration Curve Data/C-COM1 (part 8)

File: SWV_10Hz STD1 100  fgml 081020_#6.DTA
EXPLAIN
TAG	SQUARE_WAVE
TITLE	LABEL	Square Wave Voltammetry	Test Identifier
DATE	LABEL	8/10/2020	Date
TIME	LABEL	20:04:34	Time
NOTES	NOTES	1	Notes...
	 STD1 100  fg/mL 08102
PSTAT	PSTAT	REF600-24079	Potentiostat
VINIT	QUANT	-3.50000E-001	Initial E (V)
VFINAL	QUANT	-1.50000E-001	Final E (V)
STEPSIZE	QUANT	2.00000E+000	Step Size (mV)
TIMERRES	QUANT	3.33340E-005	&Timer Resolution
FREQUENCY	QUANT	1.00000E+001	Frequency (Hz)
PULSESIZE	QUANT	2.50000E+001	Pulse Size E (mV)
PULSEON	QUANT	1.00000E-001	Pulse &Time (s)
NOISEREJECT	TOGGLE	F	Noise Rejection
AREA	QUANT	2.00000E-002	Sample Area (cm^2)
IMODE	SELECTOR	1	I/E Range Mode
IRANGE	QUANT	1.00000E-003	Max Current (mA)
EQDELAY	IQUANT	10	Equil. Time (s)
IRCOMP	SELECTOR	0	IRComp
PFCOR	QUANT	5.00000E+001	PF Corr. (ohm)
CYCLES	IQUANT	101	C&ycles (#)
ELECTRODETYPE	SELECTOR	0	Electrode Type
STRIPPING	TOGGLE	F	Used for Stripping
POLARITY	TOGGLE	F	Signal Polarity
LINEFREQ	IQUANT	60	Line Frequency (Hz)
INTPERIOD	QUANT	3.3334E-005	Integration Period (s)
SEQUENCER	TOGGLE	TRUE	Run as Sequence
PSTATMODEL	IQUANT	4	Pstat Model
PSTATSECTION	LABEL	REF600-24079	Pstat Section
PSTATSERIALNO	LABEL	24079	Pstat Serial Number
CTRLMODE	IQUANT	1	Control Mode
ELECTROMETER	IQUANT	0	RE=0 or CS=1
IESTAB	IQUANT	2	I/E Stability
CASPEED	IQUANT	6	Control Amp Speed
CONVENTION	IQUANT	1	Current Convention
ICHRANGE	IQUANT	2	Ich Range
ICHRANGEMODE	TOGGLE	F	Ich Auto Range
ICHOFFSETENABLE	TOGGLE	F	Ich Offset Enable
ICHOFFSET	QUANT	0	Ich Offset (V)
ICHFILTER	IQUANT	2	Ich Filter
VCHRANGE	IQUANT	2	Vch Range
VCHRANGEMODE	TOGGLE	F	Vch Auto Range
VCHOFFSETENABLE	TOGGLE	F	Vch Offset Enable
VCHOFFSET	QUANT	0	Vch Offset (V)
VCHFILTER	IQUANT	2	Vch Filter
ACHRANGE	IQUANT	2	Ach Range
ACHOFFSETENABLE	TOGGLE	F	Ach Offset Enable
ACHOFFSET	QUANT	0	Ach Offset (V)
ACHFILTER	IQUANT	1	Ach Filter
IERANGELOWERLIMIT	IQUANT	1	I/E Range Lower Limit
IERANGEMODE	TOGGLE	F	I/E AutoRange
IERANGE	IQUANT	6	I/E Range
POSFEEDENABLE	TOGGLE	F	Positive Feedback IR Comp
POSFEEDRESISTANCE	QUANT	0	Positive Feedback Resistance (ohm)
ACHSELECT	IQUANT	0	Ach Select
SENSECABLEID	IQUANT	13	Sense Cable ID
PWRCABLEID	IQUANT	13	Power Cable ID
DCCALDATE	LABEL	6/30/2020	DC Calibration Date
ACCALDATE	LABEL	6/30/2020	AC Calibration Date
THERMOSELECT	IQUANT	1	Thermo Select
FRAMEWORKVERSION	LABEL	7.8.2	Framework Version
INSTRUMENTVERSION	LABEL	4.40	Instrument Version
CURVE	TABLE	101
	Pt	T	Vfwd	Vrev	Vstep	Ifwd	Irev	Idif	Sig	Ach	IERange	Over	Temp
	#	s	V	V	V	A	A	A	V	V	#	bits	deg C
	0	0.1	-3.25012E-001	-3.74953E-001	-3.49982E-001	-1.64238E-007	-3.24462E-007	1.60224E-007	-3.75000E-001	4.19039E-004	6	..........a	-327.68
	2	0.3	-3.21006E-001	-3.70879E-001	-3.45943E-001	-1.43331E-007	-3.04727E-007	1.61397E-007	-3.71000E-001	4.09039E-004	6	..........a	-327.68
	4	0.5	-3.17037E-001	-3.66994E-001	-3.42016E-001	-1.34126E-007	-2.90591E-007	1.56465E-007	-3.67000E-001	3.96539E-004	6	..........a	-327.68
	6	0.7	-3.13047E-001	-3.62887E-001	-3.37967E-001	-1.26304E-007	-2.77000E-007	1.50696E-007	-3.63000E-001	4.17039E-004	6	..........a	-327.68
	8	0.9	-3.09021E-001	-3.58924E-001	-3.33972E-001	-1.18741E-007	-2.64173E-007	1.45433E-007	-3.59000E-001	4.21706E-004	6	..........a	-327.68
	10	1.1	-3.05077E-001	-3.54933E-001	-3.30005E-001	-1.11952E-007	-2.52440E-007	1.40488E-007	-3.55000E-001	4.16706E-004	6	..........a	-327.68
	12	1.3	-3.01049E-001	-3.50945E-001	-3.25997E-001	-1.04813E-007	-2.40781E-007	1.35968E-007	-3.51000E-001	4.12873E-004	6	..........a	-327.68
	14	1.5	-2.97023E-001	-3.46955E-001	-3.21989E-001	-9.84323E-008	-2.29764E-007	1.31331E-007	-3.47000E-001	4.13039E-004	6	..........a	-327.68
	16	1.7	-2.92980E-001	-3.42966E-001	-3.17973E-001	-9.24122E-008	-2.19375E-007	1.26962E-007	-3.43000E-001	4.10373E-004	6	..........a	-327.68
	18	1.9	-2.89083E-001	-3.38902E-001	-3.13992E-001	-8.64801E-008	-2.09528E-007	1.23048E-007	-3.39000E-001	4.06373E-004	6	..........a	-327.68
	20	2.1	-2.85035E-001	-3.34985E-001	-3.10010E-001	-8.04980E-008	-1.99791E-007	1.19293E-007	-3.35000E-001	4.17706E-004	6	..........a	-327.68
	22	2.3	-2.81095E-001	-3.30921E-001	-3.06008E-001	-7.47109E-008	-1.90612E-007	1.15901E-007	-3.31000E-001	3.96039E-004	6	..........a	-327.68
	24	2.5	-2.77053E-001	-3.26967E-001	-3.02010E-001	-6.95726E-008	-1.81868E-007	1.12295E-007	-3.27000E-001	4.10373E-004	6	..........a	-327.68
	26	2.7	-2.72998E-001	-3.22965E-001	-2.97981E-001	-6.45323E-008	-1.73546E-007	1.09014E-007	-3.23000E-001	4.19206E-004	6	..........a	-327.68
	28	2.9	-2.68962E-001	-3.18908E-001	-2.93935E-001	-5.94130E-008	-1.65458E-007	1.06045E-007	-3.19000E-001	4.19539E-004	6	..........a	-327.68
	30	3.1	-2.65101E-001	-3.14921E-001	-2.90011E-001	-5.47457E-008	-1.57499E-007	1.02753E-007	-3.15000E-001	4.22539E-004	6	..........a	-327.68
	32	3.3	-2.61061E-001	-3.10940E-001	-2.86001E-001	-5.02311E-008	-1.50237E-007	1.00006E-007	-3.11000E-001	4.17706E-004	6	..........a	-327.68
	34	3.5	-2.57056E-001	-3.06929E-001	-2.81993E-001	-4.59283E-008	-1.43625E-007	9.76968E-008	-3.07000E-001	4.10206E-004	6	..........a	-327.68
	36	3.7	-2.53057E-001	-3.03024E-001	-2.78040E-001	-4.17884E-008	-1.36696E-007	9.49077E-008	-3.03000E-001	3.88706E-004	6	..........a	-327.68
	38	3.9	-2.49046E-001	-2.98952E-001	-2.73999E-001	-3.79859E-008	-1.30255E-007	9.22687E-008	-2.99000E-001	3.99706E-004	6	..........a	-327.68
	40	4.1	-2.45004E-001	-2.94950E-001	-2.69977E-001	-3.42708E-008	-1.24222E-007	8.99514E-008	-2.95000E-001	4.08206E-004	6	..........a	-327.68
	42	4.3	-2.41111E-001	-2.90880E-001	-2.65995E-001	-3.06193E-008	-1.18670E-007	8.80509E-008	-2.91000E-001	4.06539E-004	6	..........a	-327.68
	44	4.5	-2.37026E-001	-2.86933E-001	-2.61980E-001	-2.74742E-008	-1.12997E-007	8.55232E-008	-2.87000E-001	4.13873E-004	6	..........a	-327.68
	46	4.7	-2.33062E-001	-2.82914E-001	-2.57988E-001	-2.42062E-008	-1.07458E-007	8.32519E-008	-2.83000E-001	4.12706E-004	6	..........a	-327.68
	48	4.9	-2.29086E-001	-2.78968E-001	-2.54027E-001	-2.12741E-008	-1.02599E-007	8.13253E-008	-2.79000E-001	4.13373E-004	6	..........a	-327.68
	50	5.1	-2.25062E-001	-2.74965E-001	-2.50014E-001	-1.85944E-008	-9.78469E-008	7.92524E-008	-2.75000E-001	4.15873E-004	6	..........a	-327.68
	52	5.3	-2.21012E-001	-2.70967E-001	-2.45989E-001	-1.57254E-008	-9.33533E-008	7.76279E-008	-2.71000E-001	4.09539E-004	6	..........a	-327.68
	54	5.5	-2.17123E-001	-2.66853E-001	-2.41988E-001	-1.33561E-008	-8.89721E-008	7.56160E-008	-2.67000E-001	4.02873E-004	6	..........a	-327.68
	56	5.7	-2.12998E-001	-2.62941E-001	-2.37969E-001	-1.08711E-008	-8.46682E-008	7.37971E-008	-2.63000E-001	4.03873E-004	6	..........a	-327.68
	58	5.9	-2.09065E-001	-2.58907E-001	-2.33986E-001	-8.51250E-009	-8.04753E-008	7.19628E-008	-2.59000E-001	4.12206E-004	6	..........a	-327.68
	60	6.1	-2.05042E-001	-2.54976E-001	-2.30009E-001	-6.42490E-009	-7.68945E-008	7.04696E-008	-2.55000E-001	4.16539E-004	6	..........a	-327.68
	62	6.3	-2.01082E-001	-2.50945E-001	-2.26014E-001	-4.53333E-009	-7.32537E-008	6.87204E-008	-2.51000E-001	4.16206E-004	6	..........a	-327.68
	64	6.5	-1.97044E-001	-2.46938E-001	-2.21991E-001	-2.57841E-009	-6.97190E-008	6.71405E-008	-2.47000E-001	4.11039E-004	6	..........a	-327.68
	66	6.7	-1.93013E-001	-2.42887E-001	-2.17950E-001	-6.81503E-010	-6.64789E-008	6.57974E-008	-2.43000E-001	4.18706E-004	6	..........a	-327.68
	68	6.9	-1.89071E-001	-2.38934E-001	-2.14002E-001	1.41243E-009	-6.34018E-008	6.48142E-008	-2.39000E-001	4.21206E-004	6	..........a	-327.68
	70	7.1	-1.85085E-001	-2.34889E-001	-2.09987E-001	2.61925E-009	-6.04871E-008	6.31064E-008	-2.35000E-001	4.18539E-004	6	..........a	-327.68
	72	7.3	-1.81079E-001	-2.30935E-001	-2.06007E-001	4.11011E-009	-5.77954E-008	6.19055E-008	-2.31000E-001	4.20206E-004	6	..........a	-327.68
	74	7.5	-1.77088E-001	-2.26930E-001	-2.02009E-001	5.70898E-009	-5.50231E-008	6.07321E-008	-2.27000E-001	4.14206E-004	6	..........a	-327.68
	76	7.7	-1.73079E-001	-2.22937E-001	-1.98008E-001	6.83279E-009	-5.24208E-008	5.92535E-008	-2.23000E-001	4.12206E-004	6	..........a	-327.68
	78	7.9	-1.69058E-001	-2.18972E-001	-1.94015E-001	8.38398E-009	-5.02198E-008	5.86038E-008	-2.19000E-001	4.02873E-004	6	..........a	-327.68
	80	8.1	-1.64907E-001	-2.14906E-001	-1.89907E-001	9.67781E-009	-4.79545E-008	5.76323E-008	-2.15000E-001	4.02873E-004	6	..........a	-327.68
	82	8.3	-1.61075E-001	-2.10939E-001	-1.86007E-001	1.09766E-008	-4.56269E-008	5.66035E-008	-2.11000E-001	4.00206E-004	6	..........a	-327.68
	84	8.5	-1.57065E-001	-2.06971E-001	-1.82018E-001	1.21641E-008	-4.37537E-008	5.59178E-008	-2.07000E-001	4.08039E-004	6	..........a	-327.68
	86	8.7	-1.53107E-001	-2.02937E-001	-1.78022E-001	1.32193E-008	-4.21911E-008	5.54104E-008	-2.03000E-001	4.03706E-004	6	..........a	-327.68
	88	8.9	-1.49071E-001	-1.98986E-001	-1.74028E-001	1.42527E-008	-4.02989E-008	5.45516E-008	-1.99000E-001	4.00039E-004	6	..........a	-327.68
	90	9.1	-1.45054E-001	-1.94942E-001	-1.69998E-001	1.57086E-008	-3.83763E-008	5.40849E-008	-1.95000E-001	3.88373E-004	6	..........a	-327.68
	92	9.3	-1.41046E-001	-1.91093E-001	-1.66070E-001	1.66254E-008	-3.67801E-008	5.34055E-008	-1.91000E-001	3.85539E-004	6	..........a	-327.68
	94	9.5	-1.37108E-001	-1.86897E-001	-1.62003E-001	1.74095E-008	-3.53302E-008	5.27397E-008	-1.87000E-001	4.05039E-004	6	..........a	-327.68
	96	9.7	-1.33075E-001	-1.82998E-001	-1.58036E-001	1.83919E-008	-3.41261E-008	5.25180E-008	-1.83000E-001	3.87873E-004	6	..........a	-327.68
	98	9.9	-1.29082E-001	-1.78928E-001	-1.54005E-001	1.91397E-008	-3.27436E-008	5.18833E-008	-1.79000E-001	4.00039E-004	6	..........a	-327.68
	100	10.1	-1.25083E-001	-1.74994E-001	-1.50039E-001	2.02182E-008	-3.16778E-008	5.18959E-008	-1.75000E-001	4.06539E-004	6	..........a	-327.68

File: SWV_10Hz STD1 100  fgml 081020_#8.DTA
EXPLAIN
TAG	SQUARE_WAVE
TITLE	LABEL	Square Wave Voltammetry	Test Identifier
DATE	LABEL	8/10/2020	Date
TIME	LABEL	20:05:15	Time
NOTES	NOTES	1	Notes...
	 STD1 100  fg/mL 08102
PSTAT	PSTAT	REF600-24079	Potentiostat
VINIT	QUANT	-3.50000E-001	Initial E (V)
VFINAL	QUANT	-1.50000E-001	Final E (V)
STEPSIZE	QUANT	2.00000E+000	Step Size (mV)
TIMERRES	QUANT	3.33340E-005	&Timer Resolution
FREQUENCY	QUANT	1.00000E+001	Frequency (Hz)
PULSESIZE	QUANT	2.50000E+001	Pulse Size E (mV)
PULSEON	QUANT	1.00000E-001	Pulse &Time (s)
NOISEREJECT	TOGGLE	F	Noise Rejection
AREA	QUANT	2.00000E-002	Sample Area (cm^2)
IMODE	SELECTOR	1	I/E Range Mode
IRANGE	QUANT	1.00000E-003	Max Current (mA)
EQDELAY	IQUANT	10	Equil. Time (s)
IRCOMP	SELECTOR	0	IRComp
PFCOR	QUANT	5.00000E+001	PF Corr. (ohm)
CYCLES	IQUANT	101	C&ycles (#)
ELECTRODETYPE	SELECTOR	0	Electrode Type
STRIPPING	TOGGLE	F	Used for Stripping
POLARITY	TOGGLE	F	Signal Polarity
LINEFREQ	IQUANT	60	Line Frequency (Hz)
INTPERIOD	QUANT	3.3334E-005	Integration Period (s)
SEQUENCER	TOGGLE	TRUE	Run as Sequence
PSTATMODEL	IQUANT	4	Pstat Model
PSTATSECTION	LABEL	REF600-24079	Pstat Section
PSTATSERIALNO	LABEL	24079	Pstat Serial Number
CTRLMODE	IQUANT	1	Control Mode
ELECTROMETER	IQUANT	0	RE=0 or CS=1
IESTAB	IQUANT	2	I/E Stability
CASPEED	IQUANT	6	Control Amp Speed
CONVENTION	IQUANT	1	Current Convention
ICHRANGE	IQUANT	2	Ich Range
ICHRANGEMODE	TOGGLE	F	Ich Auto Range
ICHOFFSETENABLE	TOGGLE	F	Ich Offset Enable
ICHOFFSET	QUANT	0	Ich Offset (V)
ICHFILTER	IQUANT	2	Ich Filter
VCHRANGE	IQUANT	2	Vch Range
VCHRANGEMODE	TOGGLE	F	Vch Auto Range
VCHOFFSETENABLE	TOGGLE	F	Vch Offset Enable
VCHOFFSET	QUANT	0	Vch Offset (V)
VCHFILTER	IQUANT	2	Vch Filter
ACHRANGE	IQUANT	2	Ach Range
ACHOFFSETENABLE	TOGGLE	F	Ach Offset Enable
ACHOFFSET	QUANT	0	Ach Offset (V)
ACHFILTER	IQUANT	1	Ach Filter
IERANGELOWERLIMIT	IQUANT	1	I/E Range Lower Limit
IERANGEMODE	TOGGLE	F	I/E AutoRange
IERANGE	IQUANT	6	I/E Range
POSFEEDENABLE	TOGGLE	F	Positive Feedback IR Comp
POSFEEDRESISTANCE	QUANT	0	Positive Feedback Resistance (ohm)
ACHSELECT	IQUANT	0	Ach Select
SENSECABLEID	IQUANT	13	Sense Cable ID
PWRCABLEID	IQUANT	13	Power Cable ID
DCCALDATE	LABEL	6/30/2020	DC Calibration Date
ACCALDATE	LABEL	6/30/2020	AC Calibration Date
THERMOSELECT	IQUANT	1	Thermo Select
FRAMEWORKVERSION	LABEL	7.8.2	Framework Version
INSTRUMENTVERSION	LABEL	4.40	Instrument Version
CURVE	TABLE	101
	Pt	T	Vfwd	Vrev	Vstep	Ifwd	Irev	Idif	Sig	Ach	IERange	Over	Temp
	#	s	V	V	V	A	A	A	V	V	#	bits	deg C
	0	0.1	-3.24994E-001	-3.74942E-001	-3.49968E-001	-1.63681E-007	-3.22079E-007	1.58397E-007	-3.75000E-001	4.23706E-004	6	..........a	-327.68
	2	0.3	-3.20982E-001	-3.70866E-001	-3.45924E-001	-1.42647E-007	-3.02970E-007	1.60323E-007	-3.71000E-001	4.12373E-004	6	..........a	-327.68
	4	0.5	-3.17012E-001	-3.66961E-001	-3.41986E-001	-1.33886E-007	-2.88424E-007	1.54538E-007	-3.67000E-001	4.03706E-004	6	..........a	-327.68
	6	0.7	-3.13037E-001	-3.62876E-001	-3.37956E-001	-1.26035E-007	-2.75199E-007	1.49164E-007	-3.63000E-001	4.18706E-004	6	..........a	-327.68
	8	0.9	-3.08998E-001	-3.58911E-001	-3.33954E-001	-1.18769E-007	-2.62949E-007	1.44181E-007	-3.59000E-001	4.29206E-004	6	..........a	-327.68
	10	1.1	-3.05058E-001	-3.54917E-001	-3.29987E-001	-1.11640E-007	-2.51025E-007	1.39385E-007	-3.55000E-001	4.24373E-004	6	..........a	-327.68
	12	1.3	-3.01023E-001	-3.50943E-001	-3.25983E-001	-1.04819E-007	-2.39819E-007	1.35000E-007	-3.51000E-001	4.06373E-004	6	..........a	-327.68
	14	1.5	-2.97014E-001	-3.46941E-001	-3.21977E-001	-9.83493E-008	-2.29148E-007	1.30798E-007	-3.47000E-001	4.17373E-004	6	..........a	-327.68
	16	1.7	-2.92963E-001	-3.42905E-001	-3.17934E-001	-9.21275E-008	-2.18927E-007	1.26799E-007	-3.43000E-001	4.13706E-004	6	..........a	-327.68
	18	1.9	-2.89068E-001	-3.38875E-001	-3.13972E-001	-8.62037E-008	-2.08735E-007	1.22532E-007	-3.39000E-001	4.11039E-004	6	..........a	-327.68
	20	2.1	-2.85029E-001	-3.34930E-001	-3.09979E-001	-8.03970E-008	-1.99432E-007	1.19035E-007	-3.35000E-001	4.12206E-004	6	..........a	-327.68
	22	2.3	-2.81087E-001	-3.30898E-001	-3.05992E-001	-7.49096E-008	-1.90448E-007	1.15538E-007	-3.31000E-001	4.03373E-004	6	..........a	-327.68
	24	2.5	-2.77013E-001	-3.26929E-001	-3.01971E-001	-6.97983E-008	-1.81683E-007	1.11885E-007	-3.27000E-001	4.16206E-004	6	..........a	-327.68
	26	2.7	-2.72977E-001	-3.22941E-001	-2.97959E-001	-6.45846E-008	-1.73528E-007	1.08944E-007	-3.23000E-001	4.19539E-004	6	..........a	-327.68
	28	2.9	-2.68941E-001	-3.18889E-001	-2.93915E-001	-5.96400E-008	-1.65449E-007	1.05809E-007	-3.19000E-001	4.21539E-004	6	..........a	-327.68
	30	3.1	-2.65093E-001	-3.14921E-001	-2.90007E-001	-5.49954E-008	-1.57844E-007	1.02849E-007	-3.15000E-001	4.12039E-004	6	..........a	-327.68
	32	3.3	-2.61019E-001	-3.10917E-001	-2.85968E-001	-5.05022E-008	-1.50601E-007	1.00098E-007	-3.11000E-001	4.16373E-004	6	..........a	-327.68
	34	3.5	-2.57036E-001	-3.06903E-001	-2.81969E-001	-4.61373E-008	-1.43698E-007	9.75611E-008	-3.07000E-001	4.17706E-004	6	..........a	-327.68
	36	3.7	-2.53036E-001	-3.02983E-001	-2.78009E-001	-4.21058E-008	-1.37132E-007	9.50257E-008	-3.03000E-001	4.07873E-004	6	..........a	-327.68
	38	3.9	-2.49011E-001	-2.98930E-001	-2.73970E-001	-3.83673E-008	-1.30610E-007	9.22431E-008	-2.99000E-001	4.15039E-004	6	..........a	-327.68
	40	4.1	-2.44972E-001	-2.94926E-001	-2.69949E-001	-3.43428E-008	-1.24678E-007	9.03351E-008	-2.95000E-001	4.03039E-004	6	..........a	-327.68
	42	4.3	-2.41110E-001	-2.90863E-001	-2.65986E-001	-3.10397E-008	-1.19141E-007	8.81015E-008	-2.91000E-001	4.14706E-004	6	..........a	-327.68
	44	4.5	-2.36990E-001	-2.86903E-001	-2.61947E-001	-2.76476E-008	-1.13552E-007	8.59043E-008	-2.87000E-001	4.12373E-004	6	..........a	-327.68
	46	4.7	-2.33035E-001	-2.82889E-001	-2.57962E-001	-2.45775E-008	-1.08253E-007	8.36750E-008	-2.83000E-001	4.16706E-004	6	..........a	-327.68
	48	4.9	-2.29051E-001	-2.78942E-001	-2.53996E-001	-2.15842E-008	-1.02943E-007	8.13587E-008	-2.79000E-001	4.20373E-004	6	..........a	-327.68
	50	5.1	-2.25021E-001	-2.74939E-001	-2.49980E-001	-1.88852E-008	-9.85616E-008	7.96765E-008	-2.75000E-001	4.13706E-004	6	..........a	-327.68
	52	5.3	-2.20994E-001	-2.70946E-001	-2.45970E-001	-1.60558E-008	-9.38860E-008	7.78302E-008	-2.71000E-001	4.21039E-004	6	..........a	-327.68
	54	5.5	-2.17118E-001	-2.66836E-001	-2.41977E-001	-1.38382E-008	-8.96068E-008	7.57686E-008	-2.67000E-001	4.15706E-004	6	..........a	-327.68
	56	5.7	-2.12989E-001	-2.62922E-001	-2.37955E-001	-1.15305E-008	-8.52893E-008	7.37587E-008	-2.63000E-001	4.01373E-004	6	..........a	-327.68
	58	5.9	-2.09036E-001	-2.58881E-001	-2.33959E-001	-9.21959E-009	-8.13944E-008	7.21748E-008	-2.59000E-001	4.08706E-004	6	..........a	-327.68
	60	6.1	-2.05014E-001	-2.54935E-001	-2.29974E-001	-6.82228E-009	-7.73906E-008	7.05683E-008	-2.55000E-001	4.16373E-004	6	..........a	-327.68
	62	6.3	-2.01036E-001	-2.50937E-001	-2.25987E-001	-4.96738E-009	-7.37345E-008	6.87671E-008	-2.51000E-001	4.13039E-004	6	..........a	-327.68
	64	6.5	-1.97028E-001	-2.46915E-001	-2.21971E-001	-2.95713E-009	-7.03904E-008	6.74332E-008	-2.47000E-001	4.08039E-004	6	..........a	-327.68
	66	6.7	-1.93000E-001	-2.42854E-001	-2.17927E-001	-1.11056E-009	-6.72786E-008	6.61681E-008	-2.43000E-001	4.14539E-004	6	..........a	-327.68
	68	6.9	-1.89046E-001	-2.38919E-001	-2.13982E-001	7.20675E-010	-6.40692E-008	6.47899E-008	-2.39000E-001	4.17206E-004	6	..........a	-327.68
	70	7.1	-1.85063E-001	-2.34870E-001	-2.09966E-001	2.44323E-009	-6.12319E-008	6.36751E-008	-2.35000E-001	4.10206E-004	6	..........a	-327.68
	72	7.3	-1.81066E-001	-2.30913E-001	-2.05989E-001	3.59871E-009	-5.85312E-008	6.21299E-008	-2.31000E-001	4.12706E-004	6	..........a	-327.68
	74	7.5	-1.77058E-001	-2.26914E-001	-2.01986E-001	5.06156E-009	-5.56512E-008	6.07127E-008	-2.27000E-001	4.14039E-004	6	..........a	-327.68
	76	7.7	-1.73060E-001	-2.22915E-001	-1.97987E-001	6.61009E-009	-5.32779E-008	5.98880E-008	-2.23000E-001	4.11539E-004	6	..........a	-327.68
	78	7.9	-1.69044E-001	-2.18947E-001	-1.93996E-001	7.88225E-009	-5.06832E-008	5.85655E-008	-2.19000E-001	4.01373E-004	6	..........a	-327.68
	80	8.1	-1.64909E-001	-2.14884E-001	-1.89896E-001	9.20109E-009	-4.86543E-008	5.78554E-008	-2.15000E-001	4.04039E-004	6	..........a	-327.68
	82	8.3	-1.61067E-001	-2.10911E-001	-1.85989E-001	1.04763E-008	-4.65030E-008	5.69792E-008	-2.11000E-001	4.03873E-004	6	..........a	-327.68
	84	8.5	-1.57038E-001	-2.06915E-001	-1.81976E-001	1.17451E-008	-4.46501E-008	5.63952E-008	-2.07000E-001	4.09873E-004	6	..........a	-327.68
	86	8.7	-1.53097E-001	-2.02918E-001	-1.78007E-001	1.29366E-008	-4.27549E-008	5.56914E-008	-2.03000E-001	3.98039E-004	6	..........a	-327.68
	88	8.9	-1.49061E-001	-1.98954E-001	-1.74007E-001	1.37773E-008	-4.09260E-008	5.47033E-008	-1.99000E-001	3.96706E-004	6	..........a	-327.68
	90	9.1	-1.45031E-001	-1.94939E-001	-1.69985E-001	1.48538E-008	-3.93238E-008	5.41776E-008	-1.95000E-001	3.87373E-004	6	..........a	-327.68
	92	9.3	-1.41021E-001	-1.91006E-001	-1.66013E-001	1.58766E-008	-3.76232E-008	5.34998E-008	-1.91000E-001	3.91706E-004	6	..........a	-327.68
	94	9.5	-1.37086E-001	-1.86871E-001	-1.61978E-001	1.68264E-008	-3.64227E-008	5.32491E-008	-1.87000E-001	3.83539E-004	6	..........a	-327.68
	96	9.7	-1.33018E-001	-1.82965E-001	-1.57992E-001	1.77238E-008	-3.47138E-008	5.24377E-008	-1.83000E-001	3.85706E-004	6	..........a	-327.68
	98	9.9	-1.29046E-001	-1.78898E-001	-1.53972E-001	1.87583E-008	-3.34940E-008	5.22523E-008	-1.79000E-001	3.89539E-004	6	..........a	-327.68
	100	10.1	-1.25060E-001	-1.74986E-001	-1.50023E-001	1.95427E-008	-3.23249E-008	5.18676E-008	-1.75000E-001	3.95373E-004	6	..........a	-327.68